!FRM4SOC_CP
!RADCAL
# radiometric calibration coefs & linearity, lamp and panel data

# comments start with # (ignored by the processor)
# no empty lines between the parameter signatures in [] and the parameter values
# parameters are case insensitive
# parameters can be inserted in any order, except the first two signatures
# columns are tab- or space-delimited

[VERSION]
0.1

[CALDATE]
2022-06-06 10:56:28

[CALLAB]
Tartu Observatory

[USER]
Riho Vendt

[LAMP_ID]
TO_717

[PANEL_ID]
SG3151_2019

[DEVICE]
SAT0386

# Correlated color temperature (K)
[LAMP_CCT]
2990.7

# wavelength (nm)	bandwidth (nm)	irradiane (mW/m2/nm)	uncertainty (%, k=2)
[LAMPDATA]
300.00	0.00	1.5637	2.31
300.50	0.00	1.5923	2.29
301.00	0.00	1.6214	2.27
301.50	0.00	1.6508	2.25
302.00	0.00	1.6807	2.23
302.50	0.00	1.7109	2.21
303.00	0.00	1.7416	2.19
303.50	0.00	1.7726	2.17
304.00	0.00	1.8041	2.15
304.50	0.00	1.8360	2.13
305.00	0.00	1.8684	2.11
305.50	0.00	1.9011	2.09
306.00	0.00	1.9343	2.08
306.50	0.00	1.9679	2.06
307.00	0.00	2.0020	2.04
307.50	0.00	2.0365	2.02
308.00	0.00	2.0714	2.00
308.50	0.00	2.1068	1.98
309.00	0.00	2.1426	1.96
309.50	0.00	2.1789	1.94
310.00	0.00	2.2156	1.92
310.50	0.00	2.2528	1.90
311.00	0.00	2.2905	1.88
311.50	0.00	2.3286	1.86
312.00	0.00	2.3672	1.84
312.50	0.00	2.4063	1.82
313.00	0.00	2.4458	1.80
313.50	0.00	2.4859	1.78
314.00	0.00	2.5264	1.76
314.50	0.00	2.5674	1.74
315.00	0.00	2.6088	1.72
315.50	0.00	2.6508	1.72
316.00	0.00	2.6933	1.72
316.50	0.00	2.7363	1.72
317.00	0.00	2.7797	1.72
317.50	0.00	2.8237	1.72
318.00	0.00	2.8682	1.72
318.50	0.00	2.9132	1.72
319.00	0.00	2.9587	1.72
319.50	0.00	3.0047	1.72
320.00	0.00	3.0513	1.72
320.50	0.00	3.0983	1.72
321.00	0.00	3.1459	1.72
321.50	0.00	3.1941	1.72
322.00	0.00	3.2427	1.72
322.50	0.00	3.2919	1.72
323.00	0.00	3.3417	1.72
323.50	0.00	3.3919	1.72
324.00	0.00	3.4428	1.72
324.50	0.00	3.4942	1.72
325.00	0.00	3.5461	1.72
325.50	0.00	3.5986	1.72
326.00	0.00	3.6516	1.72
326.50	0.00	3.7052	1.72
327.00	0.00	3.7594	1.72
327.50	0.00	3.8141	1.72
328.00	0.00	3.8694	1.72
328.50	0.00	3.9253	1.72
329.00	0.00	3.9817	1.72
329.50	0.00	4.0388	1.72
330.00	0.00	4.0964	1.72
330.50	0.00	4.1546	1.72
331.00	0.00	4.2134	1.72
331.50	0.00	4.2727	1.72
332.00	0.00	4.3327	1.72
332.50	0.00	4.3933	1.72
333.00	0.00	4.4544	1.72
333.50	0.00	4.5162	1.72
334.00	0.00	4.5786	1.72
334.50	0.00	4.6416	1.72
335.00	0.00	4.7051	1.72
335.50	0.00	4.7693	1.72
336.00	0.00	4.8342	1.72
336.50	0.00	4.8996	1.72
337.00	0.00	4.9656	1.72
337.50	0.00	5.0323	1.72
338.00	0.00	5.0996	1.72
338.50	0.00	5.1676	1.72
339.00	0.00	5.2361	1.72
339.50	0.00	5.3053	1.72
340.00	0.00	5.3752	1.72
340.50	0.00	5.4457	1.72
341.00	0.00	5.5168	1.72
341.50	0.00	5.5885	1.72
342.00	0.00	5.6609	1.72
342.50	0.00	5.7340	1.72
343.00	0.00	5.8077	1.72
343.50	0.00	5.8821	1.72
344.00	0.00	5.9571	1.72
344.50	0.00	6.0328	1.72
345.00	0.00	6.1091	1.72
345.50	0.00	6.1862	1.72
346.00	0.00	6.2638	1.72
346.50	0.00	6.3422	1.72
347.00	0.00	6.4212	1.72
347.50	0.00	6.5009	1.72
348.00	0.00	6.5812	1.72
348.50	0.00	6.6623	1.72
349.00	0.00	6.7440	1.72
349.50	0.00	6.8264	1.72
350.00	0.00	6.9095	1.72
350.50	0.00	6.9933	1.72
351.00	0.00	7.0778	1.72
351.50	0.00	7.1629	1.72
352.00	0.00	7.2488	1.72
352.50	0.00	7.3353	1.72
353.00	0.00	7.4226	1.72
353.50	0.00	7.5105	1.72
354.00	0.00	7.5992	1.72
354.50	0.00	7.6885	1.72
355.00	0.00	7.7786	1.72
355.50	0.00	7.8693	1.72
356.00	0.00	7.9608	1.72
356.50	0.00	8.0530	1.72
357.00	0.00	8.1459	1.72
357.50	0.00	8.2395	1.72
358.00	0.00	8.3338	1.72
358.50	0.00	8.4289	1.72
359.00	0.00	8.5246	1.72
359.50	0.00	8.6211	1.72
360.00	0.00	8.7183	1.72
360.50	0.00	8.8163	1.72
361.00	0.00	8.9150	1.72
361.50	0.00	9.0144	1.72
362.00	0.00	9.1145	1.72
362.50	0.00	9.2154	1.72
363.00	0.00	9.3170	1.72
363.50	0.00	9.4193	1.72
364.00	0.00	9.5224	1.72
364.50	0.00	9.6262	1.72
365.00	0.00	9.7307	1.72
365.50	0.00	9.8360	1.72
366.00	0.00	9.9420	1.72
366.50	0.00	10.0488	1.72
367.00	0.00	10.1564	1.72
367.50	0.00	10.2646	1.72
368.00	0.00	10.3737	1.72
368.50	0.00	10.4834	1.72
369.00	0.00	10.5940	1.72
369.50	0.00	10.7052	1.72
370.00	0.00	10.8173	1.72
370.50	0.00	10.9301	1.72
371.00	0.00	11.0436	1.72
371.50	0.00	11.1579	1.72
372.00	0.00	11.2730	1.72
372.50	0.00	11.3888	1.72
373.00	0.00	11.5054	1.72
373.50	0.00	11.6228	1.72
374.00	0.00	11.7409	1.72
374.50	0.00	11.8597	1.72
375.00	0.00	11.9794	1.72
375.50	0.00	12.0998	1.72
376.00	0.00	12.2210	1.72
376.50	0.00	12.3429	1.72
377.00	0.00	12.4657	1.72
377.50	0.00	12.5891	1.72
378.00	0.00	12.7134	1.72
378.50	0.00	12.8384	1.72
379.00	0.00	12.9642	1.72
379.50	0.00	13.0908	1.72
380.00	0.00	13.2182	1.72
380.50	0.00	13.3463	1.71
381.00	0.00	13.4752	1.71
381.50	0.00	13.6049	1.71
382.00	0.00	13.7354	1.70
382.50	0.00	13.8666	1.70
383.00	0.00	13.9986	1.69
383.50	0.00	14.1314	1.69
384.00	0.00	14.2650	1.69
384.50	0.00	14.3994	1.68
385.00	0.00	14.5345	1.68
385.50	0.00	14.6705	1.67
386.00	0.00	14.8072	1.67
386.50	0.00	14.9447	1.66
387.00	0.00	15.0829	1.66
387.50	0.00	15.2220	1.66
388.00	0.00	15.3618	1.65
388.50	0.00	15.5025	1.65
389.00	0.00	15.6439	1.64
389.50	0.00	15.7861	1.64
390.00	0.00	15.9291	1.64
390.50	0.00	16.0728	1.63
391.00	0.00	16.2174	1.63
391.50	0.00	16.3627	1.62
392.00	0.00	16.5089	1.62
392.50	0.00	16.6558	1.62
393.00	0.00	16.8035	1.61
393.50	0.00	16.9520	1.61
394.00	0.00	17.1012	1.60
394.50	0.00	17.2513	1.60
395.00	0.00	17.4022	1.59
395.50	0.00	17.5538	1.59
396.00	0.00	17.7062	1.59
396.50	0.00	17.8594	1.58
397.00	0.00	18.0134	1.58
397.50	0.00	18.1682	1.57
398.00	0.00	18.3238	1.57
398.50	0.00	18.4801	1.57
399.00	0.00	18.6373	1.56
399.50	0.00	18.7952	1.56
400.00	0.00	18.9539	1.55
400.50	0.00	19.1134	1.55
401.00	0.00	19.2737	1.55
401.50	0.00	19.4348	1.54
402.00	0.00	19.5966	1.54
402.50	0.00	19.7593	1.53
403.00	0.00	19.9227	1.53
403.50	0.00	20.0869	1.52
404.00	0.00	20.2519	1.52
404.50	0.00	20.4177	1.52
405.00	0.00	20.5842	1.51
405.50	0.00	20.7516	1.51
406.00	0.00	20.9197	1.50
406.50	0.00	21.0886	1.50
407.00	0.00	21.2583	1.50
407.50	0.00	21.4287	1.49
408.00	0.00	21.6000	1.49
408.50	0.00	21.7720	1.48
409.00	0.00	21.9448	1.48
409.50	0.00	22.1184	1.48
410.00	0.00	22.2927	1.47
410.50	0.00	22.4678	1.47
411.00	0.00	22.6437	1.46
411.50	0.00	22.8204	1.46
412.00	0.00	22.9979	1.45
412.50	0.00	23.1761	1.45
413.00	0.00	23.3551	1.45
413.50	0.00	23.5348	1.44
414.00	0.00	23.7154	1.44
414.50	0.00	23.8967	1.43
415.00	0.00	24.0788	1.43
415.50	0.00	24.2616	1.43
416.00	0.00	24.4452	1.42
416.50	0.00	24.6296	1.42
417.00	0.00	24.8147	1.41
417.50	0.00	25.0006	1.41
418.00	0.00	25.1873	1.41
418.50	0.00	25.3747	1.40
419.00	0.00	25.5629	1.40
419.50	0.00	25.7518	1.39
420.00	0.00	25.9415	1.39
420.50	0.00	26.1319	1.39
421.00	0.00	26.3231	1.38
421.50	0.00	26.5151	1.38
422.00	0.00	26.7078	1.37
422.50	0.00	26.9013	1.37
423.00	0.00	27.0955	1.36
423.50	0.00	27.2905	1.36
424.00	0.00	27.4862	1.36
424.50	0.00	27.6826	1.35
425.00	0.00	27.8798	1.35
425.50	0.00	28.0778	1.34
426.00	0.00	28.2764	1.34
426.50	0.00	28.4759	1.34
427.00	0.00	28.6760	1.33
427.50	0.00	28.8769	1.33
428.00	0.00	29.0786	1.32
428.50	0.00	29.2809	1.32
429.00	0.00	29.4840	1.32
429.50	0.00	29.6879	1.31
430.00	0.00	29.8924	1.31
430.50	0.00	30.0977	1.30
431.00	0.00	30.3037	1.30
431.50	0.00	30.5105	1.30
432.00	0.00	30.7179	1.29
432.50	0.00	30.9261	1.29
433.00	0.00	31.1350	1.28
433.50	0.00	31.3446	1.28
434.00	0.00	31.5550	1.27
434.50	0.00	31.7660	1.27
435.00	0.00	31.9778	1.27
435.50	0.00	32.1902	1.26
436.00	0.00	32.4034	1.26
436.50	0.00	32.6173	1.25
437.00	0.00	32.8319	1.25
437.50	0.00	33.0472	1.25
438.00	0.00	33.2632	1.24
438.50	0.00	33.4799	1.24
439.00	0.00	33.6972	1.23
439.50	0.00	33.9153	1.23
440.00	0.00	34.1341	1.23
440.50	0.00	34.3536	1.23
441.00	0.00	34.5737	1.23
441.50	0.00	34.7945	1.23
442.00	0.00	35.0161	1.23
442.50	0.00	35.2383	1.23
443.00	0.00	35.4611	1.23
443.50	0.00	35.6847	1.23
444.00	0.00	35.9089	1.23
444.50	0.00	36.1338	1.23
445.00	0.00	36.3594	1.23
445.50	0.00	36.5857	1.23
446.00	0.00	36.8126	1.23
446.50	0.00	37.0402	1.23
447.00	0.00	37.2684	1.23
447.50	0.00	37.4973	1.23
448.00	0.00	37.7269	1.23
448.50	0.00	37.9571	1.23
449.00	0.00	38.1879	1.23
449.50	0.00	38.4195	1.23
450.00	0.00	38.6516	1.23
450.50	0.00	38.8844	1.23
451.00	0.00	39.1179	1.23
451.50	0.00	39.3520	1.23
452.00	0.00	39.5867	1.23
452.50	0.00	39.8220	1.23
453.00	0.00	40.0580	1.23
453.50	0.00	40.2947	1.23
454.00	0.00	40.5319	1.23
454.50	0.00	40.7698	1.23
455.00	0.00	41.0083	1.23
455.50	0.00	41.2474	1.23
456.00	0.00	41.4872	1.23
456.50	0.00	41.7275	1.23
457.00	0.00	41.9685	1.23
457.50	0.00	42.2101	1.23
458.00	0.00	42.4522	1.23
458.50	0.00	42.6950	1.23
459.00	0.00	42.9384	1.23
459.50	0.00	43.1824	1.23
460.00	0.00	43.4270	1.23
460.50	0.00	43.6722	1.23
461.00	0.00	43.9179	1.23
461.50	0.00	44.1643	1.23
462.00	0.00	44.4112	1.23
462.50	0.00	44.6587	1.23
463.00	0.00	44.9068	1.23
463.50	0.00	45.1555	1.23
464.00	0.00	45.4047	1.23
464.50	0.00	45.6546	1.23
465.00	0.00	45.9049	1.23
465.50	0.00	46.1559	1.23
466.00	0.00	46.4074	1.23
466.50	0.00	46.6595	1.23
467.00	0.00	46.9121	1.23
467.50	0.00	47.1653	1.23
468.00	0.00	47.4190	1.23
468.50	0.00	47.6733	1.23
469.00	0.00	47.9281	1.23
469.50	0.00	48.1834	1.23
470.00	0.00	48.4393	1.23
470.50	0.00	48.6958	1.23
471.00	0.00	48.9527	1.23
471.50	0.00	49.2102	1.23
472.00	0.00	49.4682	1.23
472.50	0.00	49.7268	1.23
473.00	0.00	49.9858	1.23
473.50	0.00	50.2454	1.23
474.00	0.00	50.5055	1.23
474.50	0.00	50.7661	1.23
475.00	0.00	51.0272	1.23
475.50	0.00	51.2888	1.23
476.00	0.00	51.5509	1.23
476.50	0.00	51.8135	1.23
477.00	0.00	52.0766	1.23
477.50	0.00	52.3402	1.23
478.00	0.00	52.6043	1.23
478.50	0.00	52.8688	1.23
479.00	0.00	53.1339	1.23
479.50	0.00	53.3994	1.23
480.00	0.00	53.6654	1.23
480.50	0.00	53.9318	1.23
481.00	0.00	54.1988	1.23
481.50	0.00	54.4662	1.23
482.00	0.00	54.7340	1.23
482.50	0.00	55.0023	1.23
483.00	0.00	55.2711	1.23
483.50	0.00	55.5403	1.23
484.00	0.00	55.8100	1.23
484.50	0.00	56.0801	1.23
485.00	0.00	56.3507	1.23
485.50	0.00	56.6216	1.23
486.00	0.00	56.8931	1.23
486.50	0.00	57.1649	1.23
487.00	0.00	57.4372	1.23
487.50	0.00	57.7099	1.23
488.00	0.00	57.9830	1.23
488.50	0.00	58.2566	1.23
489.00	0.00	58.5305	1.23
489.50	0.00	58.8049	1.23
490.00	0.00	59.0797	1.23
490.50	0.00	59.3549	1.23
491.00	0.00	59.6304	1.23
491.50	0.00	59.9064	1.23
492.00	0.00	60.1828	1.23
492.50	0.00	60.4595	1.23
493.00	0.00	60.7367	1.23
493.50	0.00	61.0142	1.23
494.00	0.00	61.2921	1.23
494.50	0.00	61.5704	1.23
495.00	0.00	61.8490	1.23
495.50	0.00	62.1280	1.23
496.00	0.00	62.4074	1.23
496.50	0.00	62.6871	1.23
497.00	0.00	62.9672	1.23
497.50	0.00	63.2477	1.23
498.00	0.00	63.5285	1.23
498.50	0.00	63.8096	1.23
499.00	0.00	64.0911	1.23
499.50	0.00	64.3730	1.23
500.00	0.00	64.6551	1.23
500.50	0.00	64.9376	1.23
501.00	0.00	65.2205	1.23
501.50	0.00	65.5036	1.23
502.00	0.00	65.7871	1.23
502.50	0.00	66.0709	1.23
503.00	0.00	66.3550	1.23
503.50	0.00	66.6394	1.23
504.00	0.00	66.9241	1.23
504.50	0.00	67.2092	1.23
505.00	0.00	67.4945	1.23
505.50	0.00	67.7801	1.23
506.00	0.00	68.0660	1.23
506.50	0.00	68.3522	1.23
507.00	0.00	68.6387	1.23
507.50	0.00	68.9255	1.23
508.00	0.00	69.2125	1.23
508.50	0.00	69.4999	1.23
509.00	0.00	69.7875	1.23
509.50	0.00	70.0753	1.23
510.00	0.00	70.3634	1.23
510.50	0.00	70.6518	1.23
511.00	0.00	70.9405	1.23
511.50	0.00	71.2293	1.23
512.00	0.00	71.5185	1.23
512.50	0.00	71.8079	1.23
513.00	0.00	72.0975	1.23
513.50	0.00	72.3873	1.23
514.00	0.00	72.6774	1.23
514.50	0.00	72.9678	1.23
515.00	0.00	73.2583	1.23
515.50	0.00	73.5491	1.23
516.00	0.00	73.8401	1.23
516.50	0.00	74.1313	1.23
517.00	0.00	74.4227	1.23
517.50	0.00	74.7143	1.23
518.00	0.00	75.0062	1.23
518.50	0.00	75.2982	1.23
519.00	0.00	75.5904	1.23
519.50	0.00	75.8828	1.23
520.00	0.00	76.1754	1.23
520.50	0.00	76.4682	1.23
521.00	0.00	76.7612	1.23
521.50	0.00	77.0544	1.23
522.00	0.00	77.3477	1.23
522.50	0.00	77.6412	1.23
523.00	0.00	77.9349	1.23
523.50	0.00	78.2287	1.23
524.00	0.00	78.5227	1.23
524.50	0.00	78.8168	1.23
525.00	0.00	79.1111	1.23
525.50	0.00	79.4056	1.23
526.00	0.00	79.7002	1.23
526.50	0.00	79.9949	1.23
527.00	0.00	80.2898	1.23
527.50	0.00	80.5848	1.23
528.00	0.00	80.8799	1.23
528.50	0.00	81.1752	1.23
529.00	0.00	81.4706	1.23
529.50	0.00	81.7661	1.23
530.00	0.00	82.0617	1.23
530.50	0.00	82.3574	1.23
531.00	0.00	82.6533	1.23
531.50	0.00	82.9492	1.23
532.00	0.00	83.2453	1.23
532.50	0.00	83.5414	1.23
533.00	0.00	83.8376	1.23
533.50	0.00	84.1340	1.23
534.00	0.00	84.4304	1.23
534.50	0.00	84.7269	1.23
535.00	0.00	85.0235	1.23
535.50	0.00	85.3201	1.23
536.00	0.00	85.6168	1.23
536.50	0.00	85.9136	1.23
537.00	0.00	86.2105	1.23
537.50	0.00	86.5074	1.23
538.00	0.00	86.8044	1.23
538.50	0.00	87.1014	1.23
539.00	0.00	87.3985	1.23
539.50	0.00	87.6957	1.23
540.00	0.00	87.9928	1.23
540.50	0.00	88.2900	1.23
541.00	0.00	88.5873	1.23
541.50	0.00	88.8846	1.23
542.00	0.00	89.1819	1.23
542.50	0.00	89.4792	1.23
543.00	0.00	89.7766	1.23
543.50	0.00	90.0740	1.23
544.00	0.00	90.3714	1.23
544.50	0.00	90.6688	1.23
545.00	0.00	90.9662	1.23
545.50	0.00	91.2636	1.23
546.00	0.00	91.5611	1.23
546.50	0.00	91.8585	1.23
547.00	0.00	92.1559	1.23
547.50	0.00	92.4533	1.23
548.00	0.00	92.7507	1.23
548.50	0.00	93.0481	1.23
549.00	0.00	93.3454	1.23
549.50	0.00	93.6428	1.23
550.00	0.00	93.9401	1.23
550.50	0.00	94.2374	1.23
551.00	0.00	94.5346	1.23
551.50	0.00	94.8318	1.23
552.00	0.00	95.1290	1.23
552.50	0.00	95.4261	1.23
553.00	0.00	95.7232	1.23
553.50	0.00	96.0202	1.23
554.00	0.00	96.3172	1.23
554.50	0.00	96.6141	1.23
555.00	0.00	96.9110	1.23
555.50	0.00	97.2078	1.23
556.00	0.00	97.5045	1.23
556.50	0.00	97.8012	1.23
557.00	0.00	98.0978	1.23
557.50	0.00	98.3943	1.23
558.00	0.00	98.6907	1.23
558.50	0.00	98.9871	1.23
559.00	0.00	99.2833	1.23
559.50	0.00	99.5795	1.23
560.00	0.00	99.8756	1.23
560.50	0.00	100.1716	1.23
561.00	0.00	100.4675	1.23
561.50	0.00	100.7632	1.23
562.00	0.00	101.0589	1.23
562.50	0.00	101.3545	1.23
563.00	0.00	101.6500	1.23
563.50	0.00	101.9453	1.23
564.00	0.00	102.2405	1.23
564.50	0.00	102.5356	1.23
565.00	0.00	102.8306	1.23
565.50	0.00	103.1255	1.23
566.00	0.00	103.4202	1.23
566.50	0.00	103.7148	1.23
567.00	0.00	104.0092	1.23
567.50	0.00	104.3035	1.23
568.00	0.00	104.5977	1.23
568.50	0.00	104.8917	1.23
569.00	0.00	105.1856	1.23
569.50	0.00	105.4793	1.23
570.00	0.00	105.7729	1.23
570.50	0.00	106.0663	1.23
571.00	0.00	106.3595	1.23
571.50	0.00	106.6526	1.23
572.00	0.00	106.9455	1.23
572.50	0.00	107.2383	1.23
573.00	0.00	107.5308	1.23
573.50	0.00	107.8232	1.23
574.00	0.00	108.1155	1.23
574.50	0.00	108.4075	1.23
575.00	0.00	108.6994	1.23
575.50	0.00	108.9910	1.23
576.00	0.00	109.2825	1.23
576.50	0.00	109.5738	1.23
577.00	0.00	109.8649	1.23
577.50	0.00	110.1558	1.23
578.00	0.00	110.4464	1.23
578.50	0.00	110.7369	1.23
579.00	0.00	111.0272	1.23
579.50	0.00	111.3173	1.23
580.00	0.00	111.6071	1.23
580.50	0.00	111.8967	1.23
581.00	0.00	112.1862	1.23
581.50	0.00	112.4754	1.23
582.00	0.00	112.7643	1.23
582.50	0.00	113.0531	1.23
583.00	0.00	113.3416	1.23
583.50	0.00	113.6299	1.23
584.00	0.00	113.9180	1.23
584.50	0.00	114.2058	1.23
585.00	0.00	114.4933	1.23
585.50	0.00	114.7807	1.23
586.00	0.00	115.0678	1.23
586.50	0.00	115.3546	1.23
587.00	0.00	115.6412	1.23
587.50	0.00	115.9276	1.23
588.00	0.00	116.2137	1.23
588.50	0.00	116.4995	1.23
589.00	0.00	116.7851	1.23
589.50	0.00	117.0704	1.23
590.00	0.00	117.3554	1.23
590.50	0.00	117.6402	1.23
591.00	0.00	117.9247	1.23
591.50	0.00	118.2089	1.23
592.00	0.00	118.4929	1.23
592.50	0.00	118.7766	1.23
593.00	0.00	119.0600	1.23
593.50	0.00	119.3431	1.23
594.00	0.00	119.6260	1.23
594.50	0.00	119.9085	1.23
595.00	0.00	120.1908	1.23
595.50	0.00	120.4728	1.23
596.00	0.00	120.7544	1.23
596.50	0.00	121.0358	1.23
597.00	0.00	121.3169	1.23
597.50	0.00	121.5977	1.23
598.00	0.00	121.8782	1.23
598.50	0.00	122.1584	1.23
599.00	0.00	122.4383	1.23
599.50	0.00	122.7178	1.23
600.00	0.00	122.9971	1.23
600.50	0.00	123.2760	1.23
601.00	0.00	123.5547	1.23
601.50	0.00	123.8330	1.23
602.00	0.00	124.1110	1.23
602.50	0.00	124.3887	1.23
603.00	0.00	124.6660	1.23
603.50	0.00	124.9430	1.23
604.00	0.00	125.2197	1.23
604.50	0.00	125.4961	1.23
605.00	0.00	125.7721	1.23
605.50	0.00	126.0478	1.23
606.00	0.00	126.3232	1.23
606.50	0.00	126.5982	1.23
607.00	0.00	126.8729	1.23
607.50	0.00	127.1473	1.23
608.00	0.00	127.4213	1.23
608.50	0.00	127.6949	1.23
609.00	0.00	127.9682	1.23
609.50	0.00	128.2412	1.23
610.00	0.00	128.5138	1.23
610.50	0.00	128.7861	1.23
611.00	0.00	129.0580	1.23
611.50	0.00	129.3295	1.23
612.00	0.00	129.6007	1.23
612.50	0.00	129.8715	1.23
613.00	0.00	130.1420	1.23
613.50	0.00	130.4121	1.23
614.00	0.00	130.6819	1.23
614.50	0.00	130.9512	1.23
615.00	0.00	131.2202	1.23
615.50	0.00	131.4889	1.23
616.00	0.00	131.7571	1.23
616.50	0.00	132.0250	1.23
617.00	0.00	132.2925	1.23
617.50	0.00	132.5597	1.23
618.00	0.00	132.8264	1.23
618.50	0.00	133.0928	1.23
619.00	0.00	133.3588	1.23
619.50	0.00	133.6244	1.23
620.00	0.00	133.8897	1.23
620.50	0.00	134.1545	1.23
621.00	0.00	134.4190	1.23
621.50	0.00	134.6830	1.23
622.00	0.00	134.9467	1.23
622.50	0.00	135.2100	1.23
623.00	0.00	135.4729	1.23
623.50	0.00	135.7354	1.23
624.00	0.00	135.9975	1.23
624.50	0.00	136.2592	1.23
625.00	0.00	136.5205	1.23
625.50	0.00	136.7814	1.23
626.00	0.00	137.0419	1.23
626.50	0.00	137.3020	1.23
627.00	0.00	137.5617	1.23
627.50	0.00	137.8209	1.23
628.00	0.00	138.0798	1.23
628.50	0.00	138.3383	1.23
629.00	0.00	138.5963	1.23
629.50	0.00	138.8540	1.23
630.00	0.00	139.1112	1.23
630.50	0.00	139.3681	1.23
631.00	0.00	139.6245	1.23
631.50	0.00	139.8805	1.23
632.00	0.00	140.1360	1.23
632.50	0.00	140.3912	1.23
633.00	0.00	140.6459	1.23
633.50	0.00	140.9002	1.23
634.00	0.00	141.1541	1.23
634.50	0.00	141.4076	1.23
635.00	0.00	141.6606	1.23
635.50	0.00	141.9133	1.23
636.00	0.00	142.1655	1.23
636.50	0.00	142.4172	1.23
637.00	0.00	142.6686	1.23
637.50	0.00	142.9195	1.23
638.00	0.00	143.1700	1.23
638.50	0.00	143.4200	1.23
639.00	0.00	143.6696	1.23
639.50	0.00	143.9188	1.23
640.00	0.00	144.1676	1.23
640.50	0.00	144.4159	1.23
641.00	0.00	144.6638	1.23
641.50	0.00	144.9112	1.23
642.00	0.00	145.1582	1.23
642.50	0.00	145.4048	1.23
643.00	0.00	145.6509	1.23
643.50	0.00	145.8966	1.23
644.00	0.00	146.1418	1.23
644.50	0.00	146.3866	1.23
645.00	0.00	146.6310	1.23
645.50	0.00	146.8749	1.23
646.00	0.00	147.1184	1.23
646.50	0.00	147.3614	1.23
647.00	0.00	147.6040	1.23
647.50	0.00	147.8461	1.23
648.00	0.00	148.0878	1.23
648.50	0.00	148.3291	1.23
649.00	0.00	148.5699	1.23
649.50	0.00	148.8102	1.23
650.00	0.00	149.0501	1.23
650.50	0.00	149.2895	1.23
651.00	0.00	149.5285	1.23
651.50	0.00	149.7671	1.23
652.00	0.00	150.0052	1.23
652.50	0.00	150.2428	1.23
653.00	0.00	150.4800	1.23
653.50	0.00	150.7167	1.23
654.00	0.00	150.9530	1.23
654.50	0.00	151.1888	1.23
655.00	0.00	151.4241	1.23
655.50	0.00	151.6590	1.23
656.00	0.00	151.8935	1.23
656.50	0.00	152.1274	1.23
657.00	0.00	152.3610	1.23
657.50	0.00	152.5940	1.23
658.00	0.00	152.8267	1.23
658.50	0.00	153.0588	1.23
659.00	0.00	153.2905	1.23
659.50	0.00	153.5217	1.23
660.00	0.00	153.7525	1.23
660.50	0.00	153.9828	1.23
661.00	0.00	154.2126	1.23
661.50	0.00	154.4420	1.23
662.00	0.00	154.6709	1.23
662.50	0.00	154.8994	1.23
663.00	0.00	155.1274	1.23
663.50	0.00	155.3549	1.23
664.00	0.00	155.5820	1.23
664.50	0.00	155.8086	1.23
665.00	0.00	156.0347	1.23
665.50	0.00	156.2604	1.23
666.00	0.00	156.4856	1.23
666.50	0.00	156.7103	1.23
667.00	0.00	156.9346	1.23
667.50	0.00	157.1584	1.23
668.00	0.00	157.3817	1.23
668.50	0.00	157.6046	1.23
669.00	0.00	157.8270	1.23
669.50	0.00	158.0489	1.23
670.00	0.00	158.2704	1.23
670.50	0.00	158.4914	1.23
671.00	0.00	158.7120	1.23
671.50	0.00	158.9320	1.23
672.00	0.00	159.1516	1.23
672.50	0.00	159.3708	1.23
673.00	0.00	159.5894	1.23
673.50	0.00	159.8076	1.23
674.00	0.00	160.0253	1.23
674.50	0.00	160.2426	1.23
675.00	0.00	160.4594	1.23
675.50	0.00	160.6757	1.23
676.00	0.00	160.8915	1.23
676.50	0.00	161.1069	1.23
677.00	0.00	161.3218	1.23
677.50	0.00	161.5363	1.23
678.00	0.00	161.7502	1.23
678.50	0.00	161.9637	1.23
679.00	0.00	162.1768	1.23
679.50	0.00	162.3893	1.23
680.00	0.00	162.6014	1.23
680.50	0.00	162.8130	1.23
681.00	0.00	163.0242	1.23
681.50	0.00	163.2349	1.23
682.00	0.00	163.4451	1.23
682.50	0.00	163.6548	1.23
683.00	0.00	163.8641	1.23
683.50	0.00	164.0729	1.23
684.00	0.00	164.2812	1.23
684.50	0.00	164.4891	1.23
685.00	0.00	164.6965	1.23
685.50	0.00	164.9034	1.23
686.00	0.00	165.1099	1.23
686.50	0.00	165.3158	1.23
687.00	0.00	165.5213	1.23
687.50	0.00	165.7264	1.23
688.00	0.00	165.9310	1.23
688.50	0.00	166.1351	1.23
689.00	0.00	166.3387	1.23
689.50	0.00	166.5419	1.23
690.00	0.00	166.7445	1.23
690.50	0.00	166.9468	1.23
691.00	0.00	167.1485	1.23
691.50	0.00	167.3498	1.23
692.00	0.00	167.5506	1.23
692.50	0.00	167.7510	1.23
693.00	0.00	167.9509	1.23
693.50	0.00	168.1503	1.23
694.00	0.00	168.3492	1.23
694.50	0.00	168.5477	1.23
695.00	0.00	168.7457	1.23
695.50	0.00	168.9432	1.23
696.00	0.00	169.1403	1.23
696.50	0.00	169.3369	1.23
697.00	0.00	169.5331	1.23
697.50	0.00	169.7287	1.23
698.00	0.00	169.9239	1.23
698.50	0.00	170.1187	1.23
699.00	0.00	170.3129	1.23
699.50	0.00	170.5067	1.23
700.00	0.00	170.7001	1.23
700.50	0.00	170.8930	1.23
701.00	0.00	171.0854	1.23
701.50	0.00	171.2773	1.23
702.00	0.00	171.4688	1.23
702.50	0.00	171.6598	1.23
703.00	0.00	171.8503	1.23
703.50	0.00	172.0404	1.23
704.00	0.00	172.2300	1.23
704.50	0.00	172.4192	1.23
705.00	0.00	172.6079	1.23
705.50	0.00	172.7961	1.23
706.00	0.00	172.9838	1.23
706.50	0.00	173.1711	1.23
707.00	0.00	173.3580	1.23
707.50	0.00	173.5443	1.23
708.00	0.00	173.7302	1.23
708.50	0.00	173.9157	1.23
709.00	0.00	174.1007	1.23
709.50	0.00	174.2852	1.23
710.00	0.00	174.4692	1.23
710.50	0.00	174.6528	1.23
711.00	0.00	174.8360	1.23
711.50	0.00	175.0187	1.23
712.00	0.00	175.2009	1.23
712.50	0.00	175.3826	1.23
713.00	0.00	175.5639	1.23
713.50	0.00	175.7447	1.23
714.00	0.00	175.9251	1.23
714.50	0.00	176.1050	1.23
715.00	0.00	176.2845	1.23
715.50	0.00	176.4635	1.23
716.00	0.00	176.6420	1.23
716.50	0.00	176.8201	1.23
717.00	0.00	176.9977	1.23
717.50	0.00	177.1749	1.23
718.00	0.00	177.3516	1.23
718.50	0.00	177.5278	1.23
719.00	0.00	177.7036	1.23
719.50	0.00	177.8790	1.23
720.00	0.00	178.0538	1.23
720.50	0.00	178.2283	1.23
721.00	0.00	178.4022	1.23
721.50	0.00	178.5757	1.23
722.00	0.00	178.7488	1.23
722.50	0.00	178.9214	1.23
723.00	0.00	179.0935	1.23
723.50	0.00	179.2652	1.23
724.00	0.00	179.4365	1.23
724.50	0.00	179.6072	1.23
725.00	0.00	179.7776	1.23
725.50	0.00	179.9474	1.23
726.00	0.00	180.1169	1.23
726.50	0.00	180.2858	1.23
727.00	0.00	180.4543	1.23
727.50	0.00	180.6224	1.23
728.00	0.00	180.7900	1.23
728.50	0.00	180.9572	1.23
729.00	0.00	181.1239	1.23
729.50	0.00	181.2901	1.23
730.00	0.00	181.4559	1.23
730.50	0.00	181.6213	1.23
731.00	0.00	181.7862	1.23
731.50	0.00	181.9506	1.23
732.00	0.00	182.1146	1.23
732.50	0.00	182.2782	1.23
733.00	0.00	182.4413	1.23
733.50	0.00	182.6039	1.23
734.00	0.00	182.7661	1.23
734.50	0.00	182.9279	1.23
735.00	0.00	183.0892	1.23
735.50	0.00	183.2500	1.23
736.00	0.00	183.4104	1.23
736.50	0.00	183.5704	1.23
737.00	0.00	183.7299	1.23
737.50	0.00	183.8890	1.23
738.00	0.00	184.0476	1.23
738.50	0.00	184.2057	1.23
739.00	0.00	184.3635	1.23
739.50	0.00	184.5207	1.23
740.00	0.00	184.6776	1.23
740.50	0.00	184.8339	1.23
741.00	0.00	184.9899	1.23
741.50	0.00	185.1453	1.23
742.00	0.00	185.3004	1.23
742.50	0.00	185.4550	1.23
743.00	0.00	185.6091	1.23
743.50	0.00	185.7628	1.23
744.00	0.00	185.9161	1.23
744.50	0.00	186.0689	1.23
745.00	0.00	186.2212	1.23
745.50	0.00	186.3732	1.23
746.00	0.00	186.5246	1.23
746.50	0.00	186.6757	1.23
747.00	0.00	186.8262	1.23
747.50	0.00	186.9764	1.23
748.00	0.00	187.1261	1.23
748.50	0.00	187.2753	1.23
749.00	0.00	187.4241	1.23
749.50	0.00	187.5725	1.23
750.00	0.00	187.7204	1.23
750.50	0.00	187.8679	1.23
751.00	0.00	188.0149	1.23
751.50	0.00	188.1615	1.23
752.00	0.00	188.3076	1.23
752.50	0.00	188.4533	1.23
753.00	0.00	188.5985	1.23
753.50	0.00	188.7433	1.23
754.00	0.00	188.8877	1.23
754.50	0.00	189.0316	1.23
755.00	0.00	189.1751	1.23
755.50	0.00	189.3181	1.23
756.00	0.00	189.4607	1.23
756.50	0.00	189.6029	1.23
757.00	0.00	189.7446	1.23
757.50	0.00	189.8858	1.23
758.00	0.00	190.0266	1.23
758.50	0.00	190.1670	1.23
759.00	0.00	190.3069	1.23
759.50	0.00	190.4464	1.23
760.00	0.00	190.5854	1.23
760.50	0.00	190.7240	1.23
761.00	0.00	190.8622	1.23
761.50	0.00	190.9999	1.23
762.00	0.00	191.1372	1.23
762.50	0.00	191.2740	1.23
763.00	0.00	191.4104	1.23
763.50	0.00	191.5463	1.23
764.00	0.00	191.6818	1.23
764.50	0.00	191.8168	1.23
765.00	0.00	191.9514	1.23
765.50	0.00	192.0856	1.23
766.00	0.00	192.2193	1.23
766.50	0.00	192.3525	1.23
767.00	0.00	192.4854	1.23
767.50	0.00	192.6177	1.23
768.00	0.00	192.7497	1.23
768.50	0.00	192.8811	1.23
769.00	0.00	193.0122	1.23
769.50	0.00	193.1428	1.23
770.00	0.00	193.2729	1.23
770.50	0.00	193.4026	1.23
771.00	0.00	193.5319	1.23
771.50	0.00	193.6607	1.23
772.00	0.00	193.7890	1.23
772.50	0.00	193.9170	1.23
773.00	0.00	194.0444	1.23
773.50	0.00	194.1715	1.23
774.00	0.00	194.2980	1.23
774.50	0.00	194.4241	1.23
775.00	0.00	194.5498	1.23
775.50	0.00	194.6751	1.23
776.00	0.00	194.7998	1.23
776.50	0.00	194.9242	1.23
777.00	0.00	195.0481	1.23
777.50	0.00	195.1715	1.23
778.00	0.00	195.2945	1.23
778.50	0.00	195.4170	1.23
779.00	0.00	195.5391	1.23
779.50	0.00	195.6607	1.23
780.00	0.00	195.7819	1.23
780.50	0.00	195.9026	1.23
781.00	0.00	196.0229	1.23
781.50	0.00	196.1427	1.23
782.00	0.00	196.2621	1.23
782.50	0.00	196.3810	1.23
783.00	0.00	196.4995	1.23
783.50	0.00	196.6175	1.23
784.00	0.00	196.7351	1.23
784.50	0.00	196.8522	1.23
785.00	0.00	196.9688	1.23
785.50	0.00	197.0850	1.23
786.00	0.00	197.2008	1.23
786.50	0.00	197.3161	1.23
787.00	0.00	197.4309	1.23
787.50	0.00	197.5453	1.23
788.00	0.00	197.6592	1.23
788.50	0.00	197.7726	1.23
789.00	0.00	197.8856	1.23
789.50	0.00	197.9982	1.23
790.00	0.00	198.1103	1.23
790.50	0.00	198.2219	1.23
791.00	0.00	198.3330	1.23
791.50	0.00	198.4437	1.23
792.00	0.00	198.5540	1.23
792.50	0.00	198.6637	1.23
793.00	0.00	198.7731	1.23
793.50	0.00	198.8819	1.23
794.00	0.00	198.9903	1.23
794.50	0.00	199.0982	1.23
795.00	0.00	199.2057	1.23
795.50	0.00	199.3127	1.23
796.00	0.00	199.4192	1.23
796.50	0.00	199.5253	1.23
797.00	0.00	199.6308	1.23
797.50	0.00	199.7360	1.23
798.00	0.00	199.8406	1.23
798.50	0.00	199.9448	1.23
799.00	0.00	200.0485	1.23
799.50	0.00	200.1518	1.23
800.00	0.00	200.2545	1.23
800.50	0.00	200.3568	1.23
801.00	0.00	200.4587	1.23
801.50	0.00	200.5600	1.23
802.00	0.00	200.6609	1.23
802.50	0.00	200.7613	1.23
803.00	0.00	200.8612	1.23
803.50	0.00	200.9607	1.23
804.00	0.00	201.0597	1.23
804.50	0.00	201.1582	1.23
805.00	0.00	201.2562	1.23
805.50	0.00	201.3537	1.23
806.00	0.00	201.4508	1.23
806.50	0.00	201.5474	1.23
807.00	0.00	201.6435	1.23
807.50	0.00	201.7391	1.23
808.00	0.00	201.8342	1.23
808.50	0.00	201.9289	1.23
809.00	0.00	202.0231	1.23
809.50	0.00	202.1167	1.23
810.00	0.00	202.2099	1.23
810.50	0.00	202.3026	1.23
811.00	0.00	202.3948	1.23
811.50	0.00	202.4866	1.23
812.00	0.00	202.5778	1.23
812.50	0.00	202.6686	1.23
813.00	0.00	202.7588	1.23
813.50	0.00	202.8486	1.23
814.00	0.00	202.9379	1.23
814.50	0.00	203.0266	1.23
815.00	0.00	203.1149	1.23
815.50	0.00	203.2027	1.23
816.00	0.00	203.2900	1.23
816.50	0.00	203.3768	1.23
817.00	0.00	203.4631	1.23
817.50	0.00	203.5488	1.23
818.00	0.00	203.6341	1.23
818.50	0.00	203.7189	1.23
819.00	0.00	203.8032	1.23
819.50	0.00	203.8870	1.23
820.00	0.00	203.9703	1.23
820.50	0.00	204.0530	1.23
821.00	0.00	204.1353	1.23
821.50	0.00	204.2170	1.23
822.00	0.00	204.2983	1.23
822.50	0.00	204.3790	1.23
823.00	0.00	204.4592	1.23
823.50	0.00	204.5390	1.23
824.00	0.00	204.6182	1.23
824.50	0.00	204.6968	1.23
825.00	0.00	204.7750	1.23
825.50	0.00	204.8527	1.23
826.00	0.00	204.9298	1.23
826.50	0.00	205.0064	1.23
827.00	0.00	205.0825	1.23
827.50	0.00	205.1581	1.23
828.00	0.00	205.2331	1.23
828.50	0.00	205.3077	1.23
829.00	0.00	205.3817	1.23
829.50	0.00	205.4552	1.23
830.00	0.00	205.5281	1.23
830.50	0.00	205.6006	1.23
831.00	0.00	205.6725	1.23
831.50	0.00	205.7438	1.23
832.00	0.00	205.8147	1.23
832.50	0.00	205.8850	1.23
833.00	0.00	205.9548	1.23
833.50	0.00	206.0240	1.23
834.00	0.00	206.0927	1.23
834.50	0.00	206.1609	1.23
835.00	0.00	206.2285	1.23
835.50	0.00	206.2956	1.23
836.00	0.00	206.3622	1.23
836.50	0.00	206.4282	1.23
837.00	0.00	206.4936	1.23
837.50	0.00	206.5586	1.23
838.00	0.00	206.6230	1.23
838.50	0.00	206.6868	1.23
839.00	0.00	206.7501	1.23
839.50	0.00	206.8128	1.23
840.00	0.00	206.8750	1.23
840.50	0.00	206.9367	1.23
841.00	0.00	206.9977	1.23
841.50	0.00	207.0583	1.23
842.00	0.00	207.1183	1.23
842.50	0.00	207.1777	1.23
843.00	0.00	207.2366	1.23
843.50	0.00	207.2949	1.23
844.00	0.00	207.3526	1.23
844.50	0.00	207.4098	1.23
845.00	0.00	207.4664	1.23
845.50	0.00	207.5225	1.23
846.00	0.00	207.5780	1.23
846.50	0.00	207.6329	1.23
847.00	0.00	207.6873	1.23
847.50	0.00	207.7411	1.23
848.00	0.00	207.7943	1.23
848.50	0.00	207.8470	1.23
849.00	0.00	207.8991	1.23
849.50	0.00	207.9506	1.23
850.00	0.00	208.0016	1.23
850.50	0.00	208.0519	1.23
851.00	0.00	208.1017	1.23
851.50	0.00	208.1509	1.23
852.00	0.00	208.1995	1.23
852.50	0.00	208.2476	1.23
853.00	0.00	208.2951	1.23
853.50	0.00	208.3419	1.23
854.00	0.00	208.3882	1.23
854.50	0.00	208.4340	1.23
855.00	0.00	208.4791	1.23
855.50	0.00	208.5236	1.23
856.00	0.00	208.5676	1.23
856.50	0.00	208.6109	1.23
857.00	0.00	208.6537	1.23
857.50	0.00	208.6959	1.23
858.00	0.00	208.7375	1.23
858.50	0.00	208.7784	1.23
859.00	0.00	208.8188	1.23
859.50	0.00	208.8586	1.23
860.00	0.00	208.8978	1.23
860.50	0.00	208.9364	1.23
861.00	0.00	208.9744	1.23
861.50	0.00	209.0117	1.23
862.00	0.00	209.0485	1.23
862.50	0.00	209.0847	1.23
863.00	0.00	209.1202	1.23
863.50	0.00	209.1552	1.23
864.00	0.00	209.1895	1.23
864.50	0.00	209.2233	1.23
865.00	0.00	209.2564	1.23
865.50	0.00	209.2889	1.23
866.00	0.00	209.3208	1.23
866.50	0.00	209.3521	1.23
867.00	0.00	209.3827	1.23
867.50	0.00	209.4127	1.23
868.00	0.00	209.4422	1.23
868.50	0.00	209.4710	1.23
869.00	0.00	209.4991	1.23
869.50	0.00	209.5267	1.23
870.00	0.00	209.5536	1.23
870.50	0.00	209.5799	1.23
871.00	0.00	209.6056	1.23
871.50	0.00	209.6306	1.23
872.00	0.00	209.6550	1.23
872.50	0.00	209.6788	1.23
873.00	0.00	209.7020	1.23
873.50	0.00	209.7245	1.23
874.00	0.00	209.7464	1.23
874.50	0.00	209.7676	1.23
875.00	0.00	209.7883	1.23
875.50	0.00	209.8082	1.23
876.00	0.00	209.8276	1.23
876.50	0.00	209.8463	1.23
877.00	0.00	209.8643	1.23
877.50	0.00	209.8817	1.23
878.00	0.00	209.8985	1.23
878.50	0.00	209.9146	1.23
879.00	0.00	209.9301	1.23
879.50	0.00	209.9450	1.23
880.00	0.00	209.9591	1.23
880.50	0.00	209.9727	1.23
881.00	0.00	209.9856	1.23
881.50	0.00	209.9978	1.23
882.00	0.00	210.0094	1.23
882.50	0.00	210.0203	1.23
883.00	0.00	210.0306	1.23
883.50	0.00	210.0402	1.23
884.00	0.00	210.0492	1.23
884.50	0.00	210.0575	1.23
885.00	0.00	210.0652	1.23
885.50	0.00	210.0722	1.23
886.00	0.00	210.0785	1.23
886.50	0.00	210.0842	1.23
887.00	0.00	210.0892	1.23
887.50	0.00	210.0935	1.23
888.00	0.00	210.0972	1.23
888.50	0.00	210.1002	1.23
889.00	0.00	210.1026	1.23
889.50	0.00	210.1043	1.23
890.00	0.00	210.1053	1.23
890.50	0.00	210.1056	1.23
891.00	0.00	210.1053	1.23
891.50	0.00	210.1043	1.23
892.00	0.00	210.1027	1.23
892.50	0.00	210.1004	1.23
893.00	0.00	210.0974	1.23
893.50	0.00	210.0937	1.23
894.00	0.00	210.0893	1.23
894.50	0.00	210.0843	1.23
895.00	0.00	210.0786	1.23
895.50	0.00	210.0722	1.23
896.00	0.00	210.0652	1.23
896.50	0.00	210.0575	1.23
897.00	0.00	210.0491	1.23
897.50	0.00	210.0400	1.23
898.00	0.00	210.0302	1.23
898.50	0.00	210.0198	1.23
899.00	0.00	210.0086	1.23
899.50	0.00	209.9968	1.23
900.00	0.00	209.9843	1.23
900.50	0.00	209.0132	3.51
901.00	0.00	209.0233	3.51
901.50	0.00	209.0332	3.51
902.00	0.00	209.0426	3.51
902.50	0.00	209.0518	3.51
903.00	0.00	209.0606	3.51
903.50	0.00	209.0690	3.51
904.00	0.00	209.0771	3.51
904.50	0.00	209.0849	3.51
905.00	0.00	209.0923	3.51
905.50	0.00	209.0994	3.51
906.00	0.00	209.1061	3.51
906.50	0.00	209.1125	3.51
907.00	0.00	209.1186	3.51
907.50	0.00	209.1244	3.51
908.00	0.00	209.1298	3.51
908.50	0.00	209.1348	3.51
909.00	0.00	209.1396	3.51
909.50	0.00	209.1440	3.51
910.00	0.00	209.1480	3.51
910.50	0.00	209.1518	3.51
911.00	0.00	209.1552	3.51
911.50	0.00	209.1583	3.51
912.00	0.00	209.1610	3.51
912.50	0.00	209.1634	3.51
913.00	0.00	209.1655	3.51
913.50	0.00	209.1673	3.51
914.00	0.00	209.1687	3.51
914.50	0.00	209.1698	3.51
915.00	0.00	209.1706	3.51
915.50	0.00	209.1711	3.51
916.00	0.00	209.1712	3.51
916.50	0.00	209.1710	3.51
917.00	0.00	209.1705	3.51
917.50	0.00	209.1697	3.51
918.00	0.00	209.1685	3.51
918.50	0.00	209.1670	3.51
919.00	0.00	209.1652	3.51
919.50	0.00	209.1631	3.51
920.00	0.00	209.1607	3.51
920.50	0.00	209.1579	3.51
921.00	0.00	209.1549	3.51
921.50	0.00	209.1515	3.51
922.00	0.00	209.1478	3.51
922.50	0.00	209.1438	3.51
923.00	0.00	209.1394	3.51
923.50	0.00	209.1348	3.51
924.00	0.00	209.1299	3.51
924.50	0.00	209.1246	3.51
925.00	0.00	209.1190	3.51
925.50	0.00	209.1131	3.51
926.00	0.00	209.1069	3.51
926.50	0.00	209.1004	3.51
927.00	0.00	209.0936	3.51
927.50	0.00	209.0865	3.51
928.00	0.00	209.0791	3.51
928.50	0.00	209.0713	3.51
929.00	0.00	209.0633	3.51
929.50	0.00	209.0549	3.51
930.00	0.00	209.0463	3.51
930.50	0.00	209.0373	3.51
931.00	0.00	209.0281	3.51
931.50	0.00	209.0185	3.51
932.00	0.00	209.0087	3.51
932.50	0.00	208.9985	3.51
933.00	0.00	208.9881	3.51
933.50	0.00	208.9773	3.51
934.00	0.00	208.9662	3.51
934.50	0.00	208.9549	3.51
935.00	0.00	208.9432	3.51
935.50	0.00	208.9313	3.51
936.00	0.00	208.9190	3.51
936.50	0.00	208.9065	3.51
937.00	0.00	208.8937	3.51
937.50	0.00	208.8805	3.51
938.00	0.00	208.8671	3.51
938.50	0.00	208.8534	3.51
939.00	0.00	208.8394	3.51
939.50	0.00	208.8251	3.51
940.00	0.00	208.8105	3.51
940.50	0.00	208.7957	3.51
941.00	0.00	208.7805	3.51
941.50	0.00	208.7651	3.51
942.00	0.00	208.7493	3.51
942.50	0.00	208.7333	3.51
943.00	0.00	208.7170	3.51
943.50	0.00	208.7004	3.51
944.00	0.00	208.6835	3.51
944.50	0.00	208.6664	3.51
945.00	0.00	208.6489	3.51
945.50	0.00	208.6312	3.51
946.00	0.00	208.6132	3.51
946.50	0.00	208.5949	3.51
947.00	0.00	208.5763	3.51
947.50	0.00	208.5575	3.51
948.00	0.00	208.5383	3.51
948.50	0.00	208.5189	3.51
949.00	0.00	208.4992	3.51
949.50	0.00	208.4793	3.51
950.00	0.00	208.4590	3.51
950.50	0.00	208.4385	3.51
951.00	0.00	208.4177	3.51
951.50	0.00	208.3967	3.51
952.00	0.00	208.3753	3.51
952.50	0.00	208.3537	3.51
953.00	0.00	208.3319	3.51
953.50	0.00	208.3097	3.51
954.00	0.00	208.2873	3.51
954.50	0.00	208.2646	3.51
955.00	0.00	208.2416	3.51
955.50	0.00	208.2184	3.51
956.00	0.00	208.1949	3.51
956.50	0.00	208.1711	3.51
957.00	0.00	208.1471	3.51
957.50	0.00	208.1228	3.51
958.00	0.00	208.0983	3.51
958.50	0.00	208.0734	3.51
959.00	0.00	208.0483	3.51
959.50	0.00	208.0230	3.51
960.00	0.00	207.9974	3.51
960.50	0.00	207.9715	3.51
961.00	0.00	207.9454	3.51
961.50	0.00	207.9190	3.51
962.00	0.00	207.8923	3.51
962.50	0.00	207.8654	3.51
963.00	0.00	207.8382	3.51
963.50	0.00	207.8108	3.51
964.00	0.00	207.7831	3.51
964.50	0.00	207.7552	3.51
965.00	0.00	207.7270	3.51
965.50	0.00	207.6985	3.51
966.00	0.00	207.6698	3.51
966.50	0.00	207.6408	3.51
967.00	0.00	207.6116	3.51
967.50	0.00	207.5821	3.51
968.00	0.00	207.5524	3.51
968.50	0.00	207.5225	3.51
969.00	0.00	207.4922	3.51
969.50	0.00	207.4618	3.51
970.00	0.00	207.4311	3.51
970.50	0.00	207.4001	3.51
971.00	0.00	207.3689	3.51
971.50	0.00	207.3374	3.51
972.00	0.00	207.3057	3.51
972.50	0.00	207.2738	3.51
973.00	0.00	207.2416	3.51
973.50	0.00	207.2091	3.51
974.00	0.00	207.1764	3.51
974.50	0.00	207.1435	3.51
975.00	0.00	207.1103	3.51
975.50	0.00	207.0769	3.51
976.00	0.00	207.0433	3.51
976.50	0.00	207.0094	3.51
977.00	0.00	206.9753	3.51
977.50	0.00	206.9409	3.51
978.00	0.00	206.9063	3.51
978.50	0.00	206.8714	3.51
979.00	0.00	206.8363	3.51
979.50	0.00	206.8010	3.51
980.00	0.00	206.7655	3.51
980.50	0.00	206.7297	3.51
981.00	0.00	206.6937	3.51
981.50	0.00	206.6574	3.51
982.00	0.00	206.6209	3.51
982.50	0.00	206.5842	3.51
983.00	0.00	206.5473	3.51
983.50	0.00	206.5101	3.51
984.00	0.00	206.4727	3.51
984.50	0.00	206.4350	3.51
985.00	0.00	206.3971	3.51
985.50	0.00	206.3590	3.51
986.00	0.00	206.3207	3.51
986.50	0.00	206.2822	3.51
987.00	0.00	206.2434	3.51
987.50	0.00	206.2044	3.51
988.00	0.00	206.1651	3.51
988.50	0.00	206.1257	3.51
989.00	0.00	206.0860	3.51
989.50	0.00	206.0461	3.51
990.00	0.00	206.0060	3.51
990.50	0.00	205.9656	3.51
991.00	0.00	205.9251	3.51
991.50	0.00	205.8843	3.51
992.00	0.00	205.8433	3.51
992.50	0.00	205.8020	3.51
993.00	0.00	205.7606	3.51
993.50	0.00	205.7189	3.51
994.00	0.00	205.6771	3.51
994.50	0.00	205.6350	3.51
995.00	0.00	205.5926	3.51
995.50	0.00	205.5501	3.51
996.00	0.00	205.5074	3.51
996.50	0.00	205.4644	3.51
997.00	0.00	205.4212	3.51
997.50	0.00	205.3779	3.51
998.00	0.00	205.3343	3.51
998.50	0.00	205.2905	3.51
999.00	0.00	205.2464	3.51
999.50	0.00	205.2022	3.51
1000.00	0.00	205.1578	3.51
[END_OF_LAMPDATA]

# wavelength (nm)	bandwidth (nm)	reflectance	uncertainty (%, k=2)
[PANELDATA]
350.00	0.00	0.9890	1.20
360.00	0.00	0.9890	1.20
370.00	0.00	0.9890	1.20
380.00	0.00	0.9880	1.20
390.00	0.00	0.9870	1.20
400.00	0.00	0.9880	0.50
410.00	0.00	0.9870	0.50
420.00	0.00	0.9900	0.50
430.00	0.00	0.9880	0.50
440.00	0.00	0.9890	0.50
450.00	0.00	0.9890	0.50
460.00	0.00	0.9900	0.50
470.00	0.00	0.9890	0.50
480.00	0.00	0.9890	0.50
490.00	0.00	0.9890	0.50
500.00	0.00	0.9880	0.50
510.00	0.00	0.9880	0.50
520.00	0.00	0.9880	0.50
530.00	0.00	0.9870	0.50
540.00	0.00	0.9870	0.50
550.00	0.00	0.9870	0.30
560.00	0.00	0.9860	0.30
570.00	0.00	0.9860	0.30
580.00	0.00	0.9850	0.30
590.00	0.00	0.9850	0.30
600.00	0.00	0.9850	0.30
610.00	0.00	0.9840	0.30
620.00	0.00	0.9840	0.30
630.00	0.00	0.9840	0.30
640.00	0.00	0.9830	0.30
650.00	0.00	0.9830	0.30
660.00	0.00	0.9830	0.30
670.00	0.00	0.9820	0.30
680.00	0.00	0.9820	0.30
690.00	0.00	0.9810	0.30
700.00	0.00	0.9820	0.30
710.00	0.00	0.9810	0.30
720.00	0.00	0.9800	0.30
730.00	0.00	0.9800	0.30
740.00	0.00	0.9800	0.30
750.00	0.00	0.9790	0.30
760.00	0.00	0.9790	0.30
770.00	0.00	0.9790	0.30
780.00	0.00	0.9770	0.30
790.00	0.00	0.9780	0.30
800.00	0.00	0.9770	0.30
810.00	0.00	0.9760	0.30
820.00	0.00	0.9750	0.30
830.00	0.00	0.9750	0.30
840.00	0.00	0.9760	0.30
850.00	0.00	0.9750	0.30
860.00	0.00	0.9740	0.30
870.00	0.00	0.9740	0.30
880.00	0.00	0.9750	0.30
890.00	0.00	0.9740	0.30
900.00	0.00	0.9740	0.30
910.00	0.00	0.9730	0.30
920.00	0.00	0.9730	0.30
930.00	0.00	0.9730	0.30
940.00	0.00	0.9720	0.30
950.00	0.00	0.9720	0.30
960.00	0.00	0.9720	0.30
970.00	0.00	0.9720	0.30
980.00	0.00	0.9710	0.30
990.00	0.00	0.9710	0.30
1000.00	0.00	0.9710	0.30
1010.00	0.00	0.9710	0.30
1020.00	0.00	0.9700	0.30
1030.00	0.00	0.9700	0.30
1040.00	0.00	0.9700	0.30
1050.00	0.00	0.9700	0.30
1060.00	0.00	0.9700	0.30
1070.00	0.00	0.9700	0.30
1080.00	0.00	0.9690	0.30
1090.00	0.00	0.9700	0.30
1100.00	0.00	0.9720	0.30
1110.00	0.00	0.9710	0.30
1120.00	0.00	0.9710	0.30
1130.00	0.00	0.9710	0.30
1140.00	0.00	0.9700	0.30
1150.00	0.00	0.9700	0.30
1160.00	0.00	0.9690	0.30
1170.00	0.00	0.9680	0.30
1180.00	0.00	0.9690	0.30
1190.00	0.00	0.9690	0.30
1200.00	0.00	0.9690	0.30
1210.00	0.00	0.9690	0.30
1220.00	0.00	0.9690	0.30
1230.00	0.00	0.9690	0.30
1240.00	0.00	0.9690	0.30
1250.00	0.00	0.9690	0.30
1260.00	0.00	0.9690	0.30
1270.00	0.00	0.9680	0.30
1280.00	0.00	0.9680	0.30
1290.00	0.00	0.9680	0.30
1300.00	0.00	0.9670	0.30
1310.00	0.00	0.9670	0.30
1320.00	0.00	0.9670	0.30
1330.00	0.00	0.9670	0.30
1340.00	0.00	0.9670	0.30
1350.00	0.00	0.9660	0.30
1360.00	0.00	0.9650	0.30
1370.00	0.00	0.9640	0.30
1380.00	0.00	0.9640	0.30
1390.00	0.00	0.9630	0.30
1400.00	0.00	0.9630	0.30
1410.00	0.00	0.9630	0.30
1420.00	0.00	0.9630	0.30
1430.00	0.00	0.9630	0.30
1440.00	0.00	0.9630	0.30
1450.00	0.00	0.9630	0.30
1460.00	0.00	0.9630	0.30
1470.00	0.00	0.9630	0.30
1480.00	0.00	0.9630	0.30
1490.00	0.00	0.9630	0.30
1500.00	0.00	0.9630	0.30
1510.00	0.00	0.9630	0.30
1520.00	0.00	0.9630	0.30
1530.00	0.00	0.9620	0.30
1540.00	0.00	0.9620	0.30
1550.00	0.00	0.9620	0.30
1560.00	0.00	0.9620	0.30
1570.00	0.00	0.9610	0.30
1580.00	0.00	0.9610	0.30
1590.00	0.00	0.9620	0.30
1600.00	0.00	0.9610	0.30
1610.00	0.00	0.9600	0.30
1620.00	0.00	0.9600	0.30
1630.00	0.00	0.9590	0.30
1640.00	0.00	0.9580	0.30
1650.00	0.00	0.9550	0.50
1660.00	0.00	0.9540	0.50
1670.00	0.00	0.9530	0.50
1680.00	0.00	0.9480	0.50
1690.00	0.00	0.9460	0.50
1700.00	0.00	0.9520	0.50
[END_OF_PANELDATA]

[AMBIENT_TEMP]
21.0

[DEVICE_TEMP]
22.61

# pixel no	wavelength (nm)	irradiane responsivity (unit depends on the device class)	uncertainty (%, k=2)	dark1	dark2 (content depends on the instrument class)	raw1	stdev1	raw2	stdev2
[CALDATA]
0	0.00	1024	0.00	0.000	0	1024	0.00	512	0.00
1	305.15	0.000E+000	0.00	940.700	0	56.67	2.31	58.40	3.80
2	308.53	0.000E+000	0.00	927.400	0	73.37	2.39	72.93	4.31
3	311.91	0.000E+000	0.00	924.800	0	87.33	1.72	95.00	5.05
4	315.30	0.000E+000	0.00	921.100	0	122.10	2.62	131.33	4.76
5	318.68	0.000E+000	0.00	920.600	0	170.17	1.74	177.13	4.72
6	322.06	0.000E+000	0.00	917.000	0	230.63	2.41	239.80	4.44
7	325.45	0.000E+000	0.00	915.000	0	292.00	1.78	291.13	4.22
8	328.83	0.000E+000	0.00	914.600	0	350.50	2.03	343.33	3.12
9	332.22	0.000E+000	0.00	918.800	0	408.97	1.85	399.47	3.55
10	335.60	0.000E+000	0.00	915.000	0	474.70	2.03	455.80	3.41
11	338.99	0.000E+000	0.00	917.300	0	545.50	1.83	535.07	3.70
12	342.38	0.000E+000	0.00	910.300	0	635.77	2.04	622.33	4.79
13	345.77	0.000E+000	0.00	920.500	0	729.27	1.96	729.87	5.50
14	349.15	0.000E+000	0.00	912.800	0	861.17	2.22	856.20	4.98
15	352.54	2.271E-004	3.14	918.200	0	1000.57	1.98	1009.20	5.24
16	355.93	2.090E-004	2.92	921.800	0	1180.27	2.38	1188.60	5.10
17	359.32	1.912E-004	2.54	918.800	0	1392.30	2.12	1403.13	3.38
18	362.71	1.760E-004	2.48	921.900	0	1635.37	2.32	1645.87	3.30
19	366.10	1.648E-004	2.46	916.900	0	1895.07	2.35	1899.20	3.43
20	369.49	1.570E-004	2.43	914.500	0	2141.90	2.34	2143.67	3.43
21	372.88	1.536E-004	2.45	917.800	0	2356.57	2.35	2354.47	4.19
22	376.28	1.527E-004	2.46	916.200	0	2529.33	1.84	2530.40	4.92
23	379.67	1.558E-004	2.43	918.000	0	2673.93	2.00	2662.80	4.45
24	383.06	1.603E-004	2.40	913.700	0	2801.93	1.97	2775.60	4.22
25	386.45	1.622E-004	2.37	916.200	0	2918.17	2.13	2905.67	4.10
26	389.85	1.654E-004	2.35	912.300	0	3047.57	2.36	3032.67	4.40
27	393.24	1.666E-004	2.18	913.700	0	3186.53	2.00	3185.13	3.20
28	396.64	1.674E-004	2.06	913.000	0	3367.33	2.57	3364.80	3.32
29	400.03	1.668E-004	1.98	918.100	0	3563.70	2.26	3569.87	3.96
30	403.42	1.654E-004	1.93	917.400	0	3814.60	1.67	3813.87	3.29
31	406.82	1.615E-004	1.92	918.700	0	4114.20	2.28	4119.87	3.80
32	410.21	1.583E-004	1.91	912.700	0	4471.97	1.56	4456.20	4.97
33	413.61	1.528E-004	1.87	920.400	0	4884.60	2.17	4868.40	4.29
34	417.01	1.459E-004	1.85	918.900	0	5368.20	2.17	5361.53	4.69
35	420.40	1.394E-004	1.80	910.700	0	5931.40	2.61	5915.73	3.19
36	423.80	1.318E-004	1.79	915.500	0	6577.40	2.16	6563.53	4.81
37	427.19	1.236E-004	1.75	913.400	0	7316.07	2.51	7319.13	3.20
38	430.59	1.163E-004	1.73	917.500	0	8147.43	1.97	8148.27	3.94
39	433.99	1.097E-004	1.71	914.300	0	9046.33	1.98	9045.47	3.95
40	437.39	1.042E-004	1.69	911.700	0	9978.57	2.95	9973.00	5.04
41	440.78	9.987E-005	1.68	916.400	0	10869.10	2.18	10868.47	5.40
42	444.18	9.665E-005	1.67	913.600	0	11725.43	1.98	11723.73	4.16
43	447.58	9.456E-005	1.67	915.100	0	12486.63	1.84	12490.93	4.52
44	450.98	9.378E-005	1.67	914.800	0	13148.33	1.93	13138.87	4.99
45	454.37	9.347E-005	1.67	913.900	0	13699.17	2.72	13708.07	4.48
46	457.77	9.425E-005	1.67	914.200	0	14161.37	2.14	14157.27	3.85
47	461.17	9.523E-005	1.67	910.600	0	14540.47	2.22	14549.33	4.91
48	464.57	9.658E-005	1.67	915.000	0	14880.10	1.80	14890.53	5.18
49	467.97	9.814E-005	1.67	912.200	0	15184.97	2.13	15196.93	4.34
50	471.36	1.000E-004	1.67	915.800	0	15451.40	2.06	15457.27	4.16
51	474.76	1.020E-004	1.67	914.800	0	15674.53	2.31	15692.07	4.02
52	478.16	1.049E-004	1.66	919.200	0	15784.80	2.41	15799.40	3.55
53	481.56	1.081E-004	1.66	919.300	0	15829.47	2.02	15846.93	3.97
54	484.96	1.116E-004	1.67	916.800	0	15859.70	2.28	15877.67	4.59
55	488.36	1.146E-004	1.66	919.200	0	15945.10	3.08	15964.80	4.25
56	491.75	1.172E-004	1.67	920.000	0	16102.87	2.35	16116.40	4.96
57	495.15	1.189E-004	1.66	915.100	0	16348.30	1.56	16369.00	3.39
58	498.55	1.202E-004	1.66	912.300	0	16676.40	1.69	16690.87	5.07
59	501.95	1.207E-004	1.66	916.900	0	17083.20	2.07	17105.33	4.96
60	505.35	1.207E-004	1.66	916.700	0	17603.20	2.18	17619.13	3.50
61	508.75	1.199E-004	1.66	921.700	0	18222.80	2.17	18245.80	5.42
62	512.14	1.183E-004	1.66	922.300	0	18974.87	2.01	19007.20	4.17
63	515.54	1.159E-004	1.66	917.800	0	19905.13	1.93	19934.00	3.85
64	518.94	1.133E-004	1.66	920.500	0	20921.47	2.44	20946.27	3.70
65	522.34	1.105E-004	1.66	920.200	0	21962.70	3.22	22011.40	4.91
66	525.74	1.084E-004	1.66	923.700	0	22953.13	2.02	23011.87	4.49
67	529.13	1.070E-004	1.66	920.400	0	23807.33	2.03	23879.93	3.93
68	532.53	1.060E-004	1.66	923.100	0	24608.33	2.11	24684.07	3.70
69	535.93	1.055E-004	1.66	918.500	0	25327.73	1.55	25402.27	3.53
70	539.33	1.048E-004	1.66	916.700	0	26095.80	2.63	26173.53	4.56
71	542.72	1.037E-004	1.64	915.100	0	26941.33	2.19	27043.87	5.84
72	546.12	1.026E-004	1.63	915.800	0	27836.07	2.56	27953.00	5.27
73	549.52	1.014E-004	1.61	918.500	0	28784.57	1.81	28899.47	4.44
74	552.91	1.003E-004	1.61	917.000	0	29719.57	2.59	29834.93	4.63
75	556.31	9.942E-005	1.61	912.400	0	30607.60	2.08	30729.47	5.31
76	559.70	9.864E-005	1.61	922.900	0	31420.20	2.14	31572.33	4.24
77	563.10	9.824E-005	1.61	919.300	0	32170.17	2.37	32331.73	4.28
78	566.50	9.803E-005	1.61	923.000	0	32883.90	1.52	33044.67	3.28
79	569.89	9.802E-005	1.61	927.200	0	33483.60	1.81	33665.33	4.17
80	573.28	9.839E-005	1.61	923.900	0	33980.43	2.87	34160.73	4.37
81	576.68	9.872E-005	1.61	931.900	0	34419.87	2.25	34632.40	5.29
82	580.07	9.930E-005	1.61	924.400	0	34853.30	1.94	35051.93	4.12
83	583.47	1.001E-004	1.61	920.700	0	35194.10	1.57	35397.33	3.97
84	586.86	1.012E-004	1.61	917.000	0	35412.23	2.60	35603.47	4.40
85	590.25	1.023E-004	1.61	925.300	0	35588.93	2.33	35798.20	4.24
86	593.65	1.036E-004	1.61	926.100	0	35701.37	1.73	35914.87	3.69
87	597.04	1.050E-004	1.61	919.800	0	35784.93	2.30	36000.33	4.59
88	600.43	1.066E-004	1.61	921.100	0	35804.03	1.74	36027.80	3.53
89	603.82	1.080E-004	1.61	919.800	0	35853.77	2.19	36074.40	5.28
90	607.21	1.098E-004	1.61	920.700	0	35783.67	2.34	36011.93	5.32
91	610.60	1.120E-004	1.61	922.100	0	35583.70	2.19	35814.07	5.73
92	613.99	1.151E-004	1.61	923.200	0	35088.00	2.28	35328.93	4.56
93	617.38	1.196E-004	1.61	924.000	0	34248.40	2.87	34467.60	4.50
94	620.77	1.252E-004	1.61	921.800	0	33187.40	2.27	33388.20	4.45
95	624.16	1.301E-004	1.61	922.100	0	32347.27	2.09	32553.20	5.18
96	627.55	1.345E-004	1.61	916.800	0	31709.20	1.83	31903.33	5.06
97	630.94	1.398E-004	1.61	917.900	0	30892.23	2.68	31078.73	5.01
98	634.32	1.436E-004	1.61	914.700	0	30495.03	2.57	30655.93	4.53
99	637.71	1.441E-004	1.60	917.500	0	30692.23	1.92	30873.67	3.54
100	641.10	1.448E-004	1.60	914.900	0	30913.03	1.94	31091.40	4.01
101	644.48	1.453E-004	1.60	917.200	0	31140.30	2.46	31333.87	4.30
102	647.87	1.469E-004	1.61	923.500	0	31148.53	2.04	31340.93	5.64
103	651.25	1.490E-004	1.61	918.900	0	31048.20	2.21	31235.33	4.89
104	654.64	1.514E-004	1.61	923.800	0	30833.20	2.55	31043.13	5.07
105	658.02	1.556E-004	1.60	915.800	0	30390.67	1.82	30562.93	4.76
106	661.40	1.587E-004	1.60	917.100	0	30074.60	3.49	30260.13	3.92
107	664.78	1.615E-004	1.60	921.800	0	29822.63	2.61	30008.53	3.72
108	668.17	1.648E-004	1.60	926.100	0	29470.30	1.90	29666.93	4.53
109	671.55	1.681E-004	1.60	921.200	0	29216.27	1.97	29385.27	5.37
110	674.93	1.702E-004	1.60	918.800	0	29121.63	2.10	29290.40	3.55
111	678.31	1.719E-004	1.60	920.400	0	29093.10	2.47	29265.27	3.55
112	681.68	1.730E-004	1.60	915.400	0	29159.73	2.75	29329.87	4.33
113	685.06	1.738E-004	1.60	922.100	0	29251.63	1.97	29432.73	5.02
114	688.44	1.745E-004	1.60	916.600	0	29365.97	2.41	29543.80	4.25
115	691.82	1.750E-004	1.60	915.800	0	29543.57	1.92	29713.53	4.94
116	695.19	1.763E-004	1.60	916.200	0	29570.60	2.21	29746.73	3.82
117	698.57	1.779E-004	1.60	916.000	0	29550.07	2.23	29724.47	3.85
118	701.94	1.786E-004	1.60	920.800	0	29557.77	2.12	29776.27	5.30
119	705.31	1.801E-004	1.60	914.100	0	29569.13	2.76	29765.40	3.61
120	708.69	1.810E-004	1.60	914.900	0	29637.63	2.77	29829.33	4.44
121	712.06	1.815E-004	1.60	911.800	0	29756.20	2.80	29950.00	5.21
122	715.43	1.814E-004	1.60	915.100	0	29961.67	2.73	30154.53	4.31
123	718.80	1.808E-004	1.60	917.600	0	30227.40	2.24	30443.67	5.43
124	722.17	1.802E-004	1.60	918.500	0	30532.20	2.74	30739.07	5.07
125	725.54	1.792E-004	1.60	919.900	0	30875.20	2.89	31096.93	5.14
126	728.91	1.786E-004	1.60	916.400	0	31217.83	2.40	31426.40	5.75
127	732.27	1.779E-004	1.60	916.000	0	31529.13	2.49	31743.13	5.82
128	735.64	1.775E-004	1.60	920.100	0	31754.97	2.04	31986.87	3.68
129	739.00	1.781E-004	1.60	919.700	0	31810.03	2.52	32048.20	4.79
130	742.37	1.791E-004	1.60	914.900	0	31826.13	1.84	32059.13	4.82
131	745.73	1.801E-004	1.60	917.500	0	31792.53	2.47	32037.47	4.28
132	749.09	1.815E-004	1.60	922.000	0	31692.33	1.85	31942.33	3.81
133	752.45	1.837E-004	1.60	919.200	0	31480.47	2.24	31723.87	4.66
134	755.81	1.858E-004	1.60	919.500	0	31301.00	2.50	31533.47	4.52
135	759.17	1.880E-004	1.60	919.200	0	31099.30	1.92	31322.07	3.13
136	762.53	1.902E-004	1.60	921.900	0	30862.73	2.59	31100.53	3.11
137	765.89	1.925E-004	1.60	917.200	0	30620.07	2.73	30864.40	3.66
138	769.25	1.955E-004	1.60	913.100	0	30323.07	2.05	30547.07	4.20
139	772.60	1.988E-004	1.60	917.000	0	29956.43	1.93	30167.53	5.14
140	775.96	2.024E-004	1.60	917.300	0	29543.50	2.64	29750.27	3.37
141	779.31	2.065E-004	1.60	920.300	0	29047.30	3.17	29255.20	5.49
142	782.66	2.118E-004	1.60	917.000	0	28471.77	2.87	28662.00	3.53
143	786.01	2.168E-004	1.60	918.300	0	27908.17	2.78	28103.73	4.50
144	789.36	2.224E-004	1.60	922.100	0	27341.97	1.96	27524.67	5.78
145	792.71	2.279E-004	1.60	912.100	0	26779.00	2.31	26956.00	5.42
146	796.06	2.336E-004	1.60	912.900	0	26205.30	2.37	26383.47	4.81
147	799.41	2.392E-004	1.60	912.900	0	25688.33	1.99	25856.13	4.53
148	802.75	2.451E-004	1.60	913.600	0	25160.67	2.98	25316.00	5.28
149	806.10	2.518E-004	1.60	915.500	0	24588.40	2.42	24729.33	4.21
150	809.44	2.584E-004	1.60	916.400	0	24000.53	2.39	24151.13	5.70
151	812.78	2.656E-004	1.60	915.700	0	23434.67	2.47	23568.60	3.31
152	816.12	2.728E-004	1.60	911.700	0	22883.77	1.86	23009.53	4.97
153	819.46	2.798E-004	1.60	917.800	0	22347.90	1.64	22480.80	5.81
154	822.80	2.883E-004	1.60	917.400	0	21778.40	2.83	21892.67	3.86
155	826.14	2.966E-004	1.60	919.700	0	21210.47	2.21	21329.33	3.73
156	829.48	3.058E-004	1.60	916.600	0	20636.57	2.21	20744.27	3.38
157	832.81	3.170E-004	1.60	918.200	0	19955.20	2.98	20060.67	4.41
158	836.14	3.288E-004	1.60	919.200	0	19307.30	2.24	19400.40	3.34
159	839.48	3.411E-004	1.60	916.600	0	18655.97	3.19	18745.00	3.44
160	842.81	3.535E-004	1.60	919.900	0	17995.80	2.53	18099.93	4.37
161	846.14	3.690E-004	1.60	922.200	0	17303.70	3.17	17384.13	3.68
162	849.47	3.842E-004	1.60	921.400	0	16641.93	2.56	16720.33	3.97
163	852.79	4.009E-004	1.60	923.400	0	15969.90	2.58	16044.60	3.95
164	856.12	4.188E-004	1.60	918.000	0	15329.00	2.51	15388.07	4.13
165	859.44	4.368E-004	1.60	920.700	0	14699.60	2.48	14762.60	4.04
166	862.77	4.553E-004	1.60	917.900	0	14111.47	2.41	14174.60	4.64
167	866.09	4.748E-004	1.61	921.100	0	13564.70	1.54	13616.40	4.78
168	869.41	4.938E-004	1.60	916.700	0	13069.73	2.40	13111.80	3.99
169	872.73	5.130E-004	1.60	912.900	0	12595.40	1.86	12635.73	4.06
170	876.05	5.321E-004	1.61	913.400	0	12164.67	2.11	12198.67	4.25
171	879.36	5.503E-004	1.61	917.800	0	11757.50	2.01	11798.73	5.30
172	882.68	5.680E-004	1.60	919.300	0	11381.30	2.48	11426.40	3.78
173	885.99	5.891E-004	1.60	919.800	0	11012.17	2.51	11036.60	2.99
174	889.30	6.068E-004	1.60	917.600	0	10675.57	2.31	10705.73	3.27
175	892.61	6.276E-004	1.61	919.500	0	10321.57	2.55	10350.60	4.24
176	895.92	6.472E-004	1.61	922.600	0	9977.07	2.39	10020.33	4.10
177	899.23	6.680E-004	1.61	919.800	0	9644.33	2.78	9695.47	5.10
178	902.54	0.000E+000	0.00	921.400	0	9299.23	2.29	9341.93	4.94
179	905.84	0.000E+000	0.00	918.300	0	8935.00	2.70	8957.33	5.45
180	909.14	0.000E+000	0.00	918.900	0	8594.03	2.78	8631.67	4.02
181	912.45	0.000E+000	0.00	918.100	0	8243.47	1.99	8258.67	3.81
182	915.75	0.000E+000	0.00	915.400	0	7896.00	2.13	7918.20	3.17
183	919.04	0.000E+000	0.00	920.000	0	7546.20	2.05	7570.47	3.38
184	922.34	0.000E+000	0.00	916.600	0	7190.27	1.83	7215.40	3.71
185	925.64	0.000E+000	0.00	914.400	0	6848.40	2.92	6862.20	5.23
186	928.93	0.000E+000	0.00	916.800	0	6530.33	2.06	6545.00	3.91
187	932.22	0.000E+000	0.00	914.400	0	6194.03	2.31	6208.73	5.12
188	935.51	0.000E+000	0.00	919.800	0	5846.63	1.91	5861.53	4.61
189	938.80	0.000E+000	0.00	916.500	0	5518.40	2.30	5525.53	4.86
190	942.09	0.000E+000	0.00	916.300	0	5223.70	1.95	5230.93	3.66
191	945.37	0.000E+000	0.00	917.300	0	4989.43	1.92	5008.40	3.95
192	948.66	0.000E+000	0.00	920.700	0	4810.77	2.58	4815.00	4.33
193	951.94	0.000E+000	0.00	919.000	0	4642.53	2.02	4647.67	4.11
194	955.22	0.000E+000	0.00	915.700	0	4483.37	2.11	4494.60	4.00
195	958.50	0.000E+000	0.00	915.900	0	4317.70	1.81	4315.87	3.53
196	961.78	0.000E+000	0.00	917.000	0	4145.07	2.47	4147.80	4.29
197	965.05	0.000E+000	0.00	919.700	0	3971.30	2.60	3978.40	5.42
198	968.32	0.000E+000	0.00	915.600	0	3793.23	2.07	3797.53	4.02
199	971.60	0.000E+000	0.00	915.100	0	3616.80	2.61	3614.53	4.64
200	974.87	0.000E+000	0.00	916.800	0	3435.63	1.84	3432.87	3.92
201	978.13	0.000E+000	0.00	909.300	0	3279.07	2.55	3269.67	4.45
202	981.40	0.000E+000	0.00	917.000	0	3121.83	2.26	3111.00	4.96
203	984.67	0.000E+000	0.00	914.500	0	2974.97	2.12	2972.07	4.00
204	987.93	0.000E+000	0.00	912.500	0	2838.57	2.32	2834.87	2.94
205	991.19	0.000E+000	0.00	910.500	0	2709.50	2.70	2709.87	3.68
206	994.45	0.000E+000	0.00	909.000	0	2580.73	2.34	2577.40	5.28
207	997.71	0.000E+000	0.00	913.900	0	2438.17	2.44	2441.47	3.64
208	1000.96	0.000E+000	0.00	913.400	0	2315.47	1.71	2323.40	5.13
209	1004.22	0.000E+000	0.00	914.900	0	2181.70	1.81	2181.20	3.59
210	1007.47	0.000E+000	0.00	913.800	0	2049.73	2.55	2059.53	6.19
211	1010.72	0.000E+000	0.00	915.800	0	1912.80	1.67	1925.13	4.88
212	1013.96	0.000E+000	0.00	916.100	0	1788.27	1.85	1804.80	4.16
213	1017.21	0.000E+000	0.00	918.100	0	1667.10	1.91	1680.13	4.49
214	1020.45	0.000E+000	0.00	920.900	0	1555.70	2.04	1562.53	4.81
215	1023.70	0.000E+000	0.00	913.500	0	1450.40	2.33	1461.40	3.73
216	1026.94	0.000E+000	0.00	920.800	0	1337.03	2.41	1353.73	4.88
217	1030.18	0.000E+000	0.00	917.500	0	1254.53	1.80	1267.67	4.57
218	1033.41	0.000E+000	0.00	915.000	0	1163.33	1.77	1171.33	4.80
219	1036.65	0.000E+000	0.00	913.800	0	1085.70	2.16	1094.13	4.82
220	1039.88	0.000E+000	0.00	907.800	0	1017.10	2.24	1016.07	4.73
221	1043.11	0.000E+000	0.00	910.900	0	941.03	2.30	941.00	4.93
222	1046.34	0.000E+000	0.00	910.400	0	878.10	2.33	887.67	3.74
223	1049.56	0.000E+000	0.00	911.800	0	811.97	1.83	812.20	4.47
224	1052.79	0.000E+000	0.00	909.900	0	755.87	2.47	756.80	3.51
225	1056.01	0.000E+000	0.00	914.600	0	694.50	1.57	696.47	3.48
226	1059.23	0.000E+000	0.00	909.400	0	652.73	2.23	655.00	4.15
227	1062.45	0.000E+000	0.00	915.600	0	604.77	1.96	601.27	4.60
228	1065.66	0.000E+000	0.00	917.400	0	563.73	2.53	564.93	4.09
229	1068.87	0.000E+000	0.00	909.600	0	531.40	2.20	540.47	4.42
230	1072.09	0.000E+000	0.00	912.700	0	504.43	2.36	495.00	3.78
231	1075.30	0.000E+000	0.00	912.200	0	476.37	3.51	470.80	5.36
232	1078.50	0.000E+000	0.00	906.300	0	454.10	2.14	438.27	3.87
233	1081.71	0.000E+000	0.00	904.700	0	428.43	2.38	428.27	4.18
234	1084.91	0.000E+000	0.00	907.700	0	404.47	2.25	399.20	4.30
235	1088.11	0.000E+000	0.00	903.000	0	385.97	1.41	376.53	4.12
236	1091.31	0.000E+000	0.00	910.900	0	365.17	2.09	367.27	4.09
237	1094.50	0.000E+000	0.00	909.300	0	349.77	1.71	345.40	4.21
238	1097.70	0.000E+000	0.00	906.200	0	332.10	1.85	327.47	4.35
239	1100.89	0.000E+000	0.00	910.900	0	320.60	1.56	319.00	4.95
240	1104.08	0.000E+000	0.00	909.200	0	321.30	1.84	327.20	4.75
241	1107.27	0.000E+000	0.00	911.900	0	326.13	2.90	317.20	4.02
242	1110.45	0.000E+000	0.00	912.200	0	353.80	2.24	356.73	4.19
243	1113.63	0.000E+000	0.00	911.800	0	405.03	2.00	397.87	4.09
244	1116.81	0.000E+000	0.00	909.000	0	458.03	1.97	460.00	3.85
245	1119.99	0.000E+000	0.00	906.700	0	509.77	2.12	502.13	4.49
246	1123.17	0.000E+000	0.00	912.100	0	532.40	2.19	529.47	4.20
247	1126.34	0.000E+000	0.00	910.300	0	545.47	2.84	548.47	3.94
248	1129.51	0.000E+000	0.00	906.400	0	557.37	1.95	557.07	4.04
249	1132.68	0.000E+000	0.00	909.900	0	557.07	2.01	556.67	4.42
250	1135.85	0.000E+000	0.00	905.300	0	573.10	2.02	570.47	5.18
251	1139.01	0.000E+000	0.00	905.900	0	589.50	2.33	581.27	4.29
252	1142.17	0.000E+000	0.00	907.100	0	608.10	2.18	600.93	4.41
253	1145.33	0.000E+000	0.00	906.200	0	628.93	2.24	615.87	4.83
254	1148.49	0.000E+000	0.00	908.000	0	647.83	2.17	632.80	3.65
255	1151.64	0.000E+000	0.00	912.600	0	661.90	2.74	657.87	4.29
[END_OF_CALDATA]
