!FRM4SOC_CP
!RADCAL
# radiometric calibration coefs & linearity, lamp and panel data

# comments start with # (ignored by the processor)
# no empty lines between the parameter signatures in [] and the parameter values
# parameters are case insensitive
# parameters can be inserted in any order, except the first two signatures
# columns are tab- or space-delimited

[VERSION]
0.1

[CALDATE]
2022-06-06 14:09:51

[CALLAB]
Tartu Observatory

[USER]
Riho Vendt

[LAMP_ID]
TO_717

[PANEL_ID]
SG3151_2019

[DEVICE]
SAT0488

# Correlated color temperature (K)
[LAMP_CCT]
2990.7

# wavelength (nm)	bandwidth (nm)	irradiane (mW/m2/nm)	uncertainty (%, k=2)
[LAMPDATA]
300.00	0.00	1.5637	2.31
300.50	0.00	1.5923	2.29
301.00	0.00	1.6214	2.27
301.50	0.00	1.6508	2.25
302.00	0.00	1.6807	2.23
302.50	0.00	1.7109	2.21
303.00	0.00	1.7416	2.19
303.50	0.00	1.7726	2.17
304.00	0.00	1.8041	2.15
304.50	0.00	1.8360	2.13
305.00	0.00	1.8684	2.11
305.50	0.00	1.9011	2.09
306.00	0.00	1.9343	2.08
306.50	0.00	1.9679	2.06
307.00	0.00	2.0020	2.04
307.50	0.00	2.0365	2.02
308.00	0.00	2.0714	2.00
308.50	0.00	2.1068	1.98
309.00	0.00	2.1426	1.96
309.50	0.00	2.1789	1.94
310.00	0.00	2.2156	1.92
310.50	0.00	2.2528	1.90
311.00	0.00	2.2905	1.88
311.50	0.00	2.3286	1.86
312.00	0.00	2.3672	1.84
312.50	0.00	2.4063	1.82
313.00	0.00	2.4458	1.80
313.50	0.00	2.4859	1.78
314.00	0.00	2.5264	1.76
314.50	0.00	2.5674	1.74
315.00	0.00	2.6088	1.72
315.50	0.00	2.6508	1.72
316.00	0.00	2.6933	1.72
316.50	0.00	2.7363	1.72
317.00	0.00	2.7797	1.72
317.50	0.00	2.8237	1.72
318.00	0.00	2.8682	1.72
318.50	0.00	2.9132	1.72
319.00	0.00	2.9587	1.72
319.50	0.00	3.0047	1.72
320.00	0.00	3.0513	1.72
320.50	0.00	3.0983	1.72
321.00	0.00	3.1459	1.72
321.50	0.00	3.1941	1.72
322.00	0.00	3.2427	1.72
322.50	0.00	3.2919	1.72
323.00	0.00	3.3417	1.72
323.50	0.00	3.3919	1.72
324.00	0.00	3.4428	1.72
324.50	0.00	3.4942	1.72
325.00	0.00	3.5461	1.72
325.50	0.00	3.5986	1.72
326.00	0.00	3.6516	1.72
326.50	0.00	3.7052	1.72
327.00	0.00	3.7594	1.72
327.50	0.00	3.8141	1.72
328.00	0.00	3.8694	1.72
328.50	0.00	3.9253	1.72
329.00	0.00	3.9817	1.72
329.50	0.00	4.0388	1.72
330.00	0.00	4.0964	1.72
330.50	0.00	4.1546	1.72
331.00	0.00	4.2134	1.72
331.50	0.00	4.2727	1.72
332.00	0.00	4.3327	1.72
332.50	0.00	4.3933	1.72
333.00	0.00	4.4544	1.72
333.50	0.00	4.5162	1.72
334.00	0.00	4.5786	1.72
334.50	0.00	4.6416	1.72
335.00	0.00	4.7051	1.72
335.50	0.00	4.7693	1.72
336.00	0.00	4.8342	1.72
336.50	0.00	4.8996	1.72
337.00	0.00	4.9656	1.72
337.50	0.00	5.0323	1.72
338.00	0.00	5.0996	1.72
338.50	0.00	5.1676	1.72
339.00	0.00	5.2361	1.72
339.50	0.00	5.3053	1.72
340.00	0.00	5.3752	1.72
340.50	0.00	5.4457	1.72
341.00	0.00	5.5168	1.72
341.50	0.00	5.5885	1.72
342.00	0.00	5.6609	1.72
342.50	0.00	5.7340	1.72
343.00	0.00	5.8077	1.72
343.50	0.00	5.8821	1.72
344.00	0.00	5.9571	1.72
344.50	0.00	6.0328	1.72
345.00	0.00	6.1091	1.72
345.50	0.00	6.1862	1.72
346.00	0.00	6.2638	1.72
346.50	0.00	6.3422	1.72
347.00	0.00	6.4212	1.72
347.50	0.00	6.5009	1.72
348.00	0.00	6.5812	1.72
348.50	0.00	6.6623	1.72
349.00	0.00	6.7440	1.72
349.50	0.00	6.8264	1.72
350.00	0.00	6.9095	1.72
350.50	0.00	6.9933	1.72
351.00	0.00	7.0778	1.72
351.50	0.00	7.1629	1.72
352.00	0.00	7.2488	1.72
352.50	0.00	7.3353	1.72
353.00	0.00	7.4226	1.72
353.50	0.00	7.5105	1.72
354.00	0.00	7.5992	1.72
354.50	0.00	7.6885	1.72
355.00	0.00	7.7786	1.72
355.50	0.00	7.8693	1.72
356.00	0.00	7.9608	1.72
356.50	0.00	8.0530	1.72
357.00	0.00	8.1459	1.72
357.50	0.00	8.2395	1.72
358.00	0.00	8.3338	1.72
358.50	0.00	8.4289	1.72
359.00	0.00	8.5246	1.72
359.50	0.00	8.6211	1.72
360.00	0.00	8.7183	1.72
360.50	0.00	8.8163	1.72
361.00	0.00	8.9150	1.72
361.50	0.00	9.0144	1.72
362.00	0.00	9.1145	1.72
362.50	0.00	9.2154	1.72
363.00	0.00	9.3170	1.72
363.50	0.00	9.4193	1.72
364.00	0.00	9.5224	1.72
364.50	0.00	9.6262	1.72
365.00	0.00	9.7307	1.72
365.50	0.00	9.8360	1.72
366.00	0.00	9.9420	1.72
366.50	0.00	10.0488	1.72
367.00	0.00	10.1564	1.72
367.50	0.00	10.2646	1.72
368.00	0.00	10.3737	1.72
368.50	0.00	10.4834	1.72
369.00	0.00	10.5940	1.72
369.50	0.00	10.7052	1.72
370.00	0.00	10.8173	1.72
370.50	0.00	10.9301	1.72
371.00	0.00	11.0436	1.72
371.50	0.00	11.1579	1.72
372.00	0.00	11.2730	1.72
372.50	0.00	11.3888	1.72
373.00	0.00	11.5054	1.72
373.50	0.00	11.6228	1.72
374.00	0.00	11.7409	1.72
374.50	0.00	11.8597	1.72
375.00	0.00	11.9794	1.72
375.50	0.00	12.0998	1.72
376.00	0.00	12.2210	1.72
376.50	0.00	12.3429	1.72
377.00	0.00	12.4657	1.72
377.50	0.00	12.5891	1.72
378.00	0.00	12.7134	1.72
378.50	0.00	12.8384	1.72
379.00	0.00	12.9642	1.72
379.50	0.00	13.0908	1.72
380.00	0.00	13.2182	1.72
380.50	0.00	13.3463	1.71
381.00	0.00	13.4752	1.71
381.50	0.00	13.6049	1.71
382.00	0.00	13.7354	1.70
382.50	0.00	13.8666	1.70
383.00	0.00	13.9986	1.69
383.50	0.00	14.1314	1.69
384.00	0.00	14.2650	1.69
384.50	0.00	14.3994	1.68
385.00	0.00	14.5345	1.68
385.50	0.00	14.6705	1.67
386.00	0.00	14.8072	1.67
386.50	0.00	14.9447	1.66
387.00	0.00	15.0829	1.66
387.50	0.00	15.2220	1.66
388.00	0.00	15.3618	1.65
388.50	0.00	15.5025	1.65
389.00	0.00	15.6439	1.64
389.50	0.00	15.7861	1.64
390.00	0.00	15.9291	1.64
390.50	0.00	16.0728	1.63
391.00	0.00	16.2174	1.63
391.50	0.00	16.3627	1.62
392.00	0.00	16.5089	1.62
392.50	0.00	16.6558	1.62
393.00	0.00	16.8035	1.61
393.50	0.00	16.9520	1.61
394.00	0.00	17.1012	1.60
394.50	0.00	17.2513	1.60
395.00	0.00	17.4022	1.59
395.50	0.00	17.5538	1.59
396.00	0.00	17.7062	1.59
396.50	0.00	17.8594	1.58
397.00	0.00	18.0134	1.58
397.50	0.00	18.1682	1.57
398.00	0.00	18.3238	1.57
398.50	0.00	18.4801	1.57
399.00	0.00	18.6373	1.56
399.50	0.00	18.7952	1.56
400.00	0.00	18.9539	1.55
400.50	0.00	19.1134	1.55
401.00	0.00	19.2737	1.55
401.50	0.00	19.4348	1.54
402.00	0.00	19.5966	1.54
402.50	0.00	19.7593	1.53
403.00	0.00	19.9227	1.53
403.50	0.00	20.0869	1.52
404.00	0.00	20.2519	1.52
404.50	0.00	20.4177	1.52
405.00	0.00	20.5842	1.51
405.50	0.00	20.7516	1.51
406.00	0.00	20.9197	1.50
406.50	0.00	21.0886	1.50
407.00	0.00	21.2583	1.50
407.50	0.00	21.4287	1.49
408.00	0.00	21.6000	1.49
408.50	0.00	21.7720	1.48
409.00	0.00	21.9448	1.48
409.50	0.00	22.1184	1.48
410.00	0.00	22.2927	1.47
410.50	0.00	22.4678	1.47
411.00	0.00	22.6437	1.46
411.50	0.00	22.8204	1.46
412.00	0.00	22.9979	1.45
412.50	0.00	23.1761	1.45
413.00	0.00	23.3551	1.45
413.50	0.00	23.5348	1.44
414.00	0.00	23.7154	1.44
414.50	0.00	23.8967	1.43
415.00	0.00	24.0788	1.43
415.50	0.00	24.2616	1.43
416.00	0.00	24.4452	1.42
416.50	0.00	24.6296	1.42
417.00	0.00	24.8147	1.41
417.50	0.00	25.0006	1.41
418.00	0.00	25.1873	1.41
418.50	0.00	25.3747	1.40
419.00	0.00	25.5629	1.40
419.50	0.00	25.7518	1.39
420.00	0.00	25.9415	1.39
420.50	0.00	26.1319	1.39
421.00	0.00	26.3231	1.38
421.50	0.00	26.5151	1.38
422.00	0.00	26.7078	1.37
422.50	0.00	26.9013	1.37
423.00	0.00	27.0955	1.36
423.50	0.00	27.2905	1.36
424.00	0.00	27.4862	1.36
424.50	0.00	27.6826	1.35
425.00	0.00	27.8798	1.35
425.50	0.00	28.0778	1.34
426.00	0.00	28.2764	1.34
426.50	0.00	28.4759	1.34
427.00	0.00	28.6760	1.33
427.50	0.00	28.8769	1.33
428.00	0.00	29.0786	1.32
428.50	0.00	29.2809	1.32
429.00	0.00	29.4840	1.32
429.50	0.00	29.6879	1.31
430.00	0.00	29.8924	1.31
430.50	0.00	30.0977	1.30
431.00	0.00	30.3037	1.30
431.50	0.00	30.5105	1.30
432.00	0.00	30.7179	1.29
432.50	0.00	30.9261	1.29
433.00	0.00	31.1350	1.28
433.50	0.00	31.3446	1.28
434.00	0.00	31.5550	1.27
434.50	0.00	31.7660	1.27
435.00	0.00	31.9778	1.27
435.50	0.00	32.1902	1.26
436.00	0.00	32.4034	1.26
436.50	0.00	32.6173	1.25
437.00	0.00	32.8319	1.25
437.50	0.00	33.0472	1.25
438.00	0.00	33.2632	1.24
438.50	0.00	33.4799	1.24
439.00	0.00	33.6972	1.23
439.50	0.00	33.9153	1.23
440.00	0.00	34.1341	1.23
440.50	0.00	34.3536	1.23
441.00	0.00	34.5737	1.23
441.50	0.00	34.7945	1.23
442.00	0.00	35.0161	1.23
442.50	0.00	35.2383	1.23
443.00	0.00	35.4611	1.23
443.50	0.00	35.6847	1.23
444.00	0.00	35.9089	1.23
444.50	0.00	36.1338	1.23
445.00	0.00	36.3594	1.23
445.50	0.00	36.5857	1.23
446.00	0.00	36.8126	1.23
446.50	0.00	37.0402	1.23
447.00	0.00	37.2684	1.23
447.50	0.00	37.4973	1.23
448.00	0.00	37.7269	1.23
448.50	0.00	37.9571	1.23
449.00	0.00	38.1879	1.23
449.50	0.00	38.4195	1.23
450.00	0.00	38.6516	1.23
450.50	0.00	38.8844	1.23
451.00	0.00	39.1179	1.23
451.50	0.00	39.3520	1.23
452.00	0.00	39.5867	1.23
452.50	0.00	39.8220	1.23
453.00	0.00	40.0580	1.23
453.50	0.00	40.2947	1.23
454.00	0.00	40.5319	1.23
454.50	0.00	40.7698	1.23
455.00	0.00	41.0083	1.23
455.50	0.00	41.2474	1.23
456.00	0.00	41.4872	1.23
456.50	0.00	41.7275	1.23
457.00	0.00	41.9685	1.23
457.50	0.00	42.2101	1.23
458.00	0.00	42.4522	1.23
458.50	0.00	42.6950	1.23
459.00	0.00	42.9384	1.23
459.50	0.00	43.1824	1.23
460.00	0.00	43.4270	1.23
460.50	0.00	43.6722	1.23
461.00	0.00	43.9179	1.23
461.50	0.00	44.1643	1.23
462.00	0.00	44.4112	1.23
462.50	0.00	44.6587	1.23
463.00	0.00	44.9068	1.23
463.50	0.00	45.1555	1.23
464.00	0.00	45.4047	1.23
464.50	0.00	45.6546	1.23
465.00	0.00	45.9049	1.23
465.50	0.00	46.1559	1.23
466.00	0.00	46.4074	1.23
466.50	0.00	46.6595	1.23
467.00	0.00	46.9121	1.23
467.50	0.00	47.1653	1.23
468.00	0.00	47.4190	1.23
468.50	0.00	47.6733	1.23
469.00	0.00	47.9281	1.23
469.50	0.00	48.1834	1.23
470.00	0.00	48.4393	1.23
470.50	0.00	48.6958	1.23
471.00	0.00	48.9527	1.23
471.50	0.00	49.2102	1.23
472.00	0.00	49.4682	1.23
472.50	0.00	49.7268	1.23
473.00	0.00	49.9858	1.23
473.50	0.00	50.2454	1.23
474.00	0.00	50.5055	1.23
474.50	0.00	50.7661	1.23
475.00	0.00	51.0272	1.23
475.50	0.00	51.2888	1.23
476.00	0.00	51.5509	1.23
476.50	0.00	51.8135	1.23
477.00	0.00	52.0766	1.23
477.50	0.00	52.3402	1.23
478.00	0.00	52.6043	1.23
478.50	0.00	52.8688	1.23
479.00	0.00	53.1339	1.23
479.50	0.00	53.3994	1.23
480.00	0.00	53.6654	1.23
480.50	0.00	53.9318	1.23
481.00	0.00	54.1988	1.23
481.50	0.00	54.4662	1.23
482.00	0.00	54.7340	1.23
482.50	0.00	55.0023	1.23
483.00	0.00	55.2711	1.23
483.50	0.00	55.5403	1.23
484.00	0.00	55.8100	1.23
484.50	0.00	56.0801	1.23
485.00	0.00	56.3507	1.23
485.50	0.00	56.6216	1.23
486.00	0.00	56.8931	1.23
486.50	0.00	57.1649	1.23
487.00	0.00	57.4372	1.23
487.50	0.00	57.7099	1.23
488.00	0.00	57.9830	1.23
488.50	0.00	58.2566	1.23
489.00	0.00	58.5305	1.23
489.50	0.00	58.8049	1.23
490.00	0.00	59.0797	1.23
490.50	0.00	59.3549	1.23
491.00	0.00	59.6304	1.23
491.50	0.00	59.9064	1.23
492.00	0.00	60.1828	1.23
492.50	0.00	60.4595	1.23
493.00	0.00	60.7367	1.23
493.50	0.00	61.0142	1.23
494.00	0.00	61.2921	1.23
494.50	0.00	61.5704	1.23
495.00	0.00	61.8490	1.23
495.50	0.00	62.1280	1.23
496.00	0.00	62.4074	1.23
496.50	0.00	62.6871	1.23
497.00	0.00	62.9672	1.23
497.50	0.00	63.2477	1.23
498.00	0.00	63.5285	1.23
498.50	0.00	63.8096	1.23
499.00	0.00	64.0911	1.23
499.50	0.00	64.3730	1.23
500.00	0.00	64.6551	1.23
500.50	0.00	64.9376	1.23
501.00	0.00	65.2205	1.23
501.50	0.00	65.5036	1.23
502.00	0.00	65.7871	1.23
502.50	0.00	66.0709	1.23
503.00	0.00	66.3550	1.23
503.50	0.00	66.6394	1.23
504.00	0.00	66.9241	1.23
504.50	0.00	67.2092	1.23
505.00	0.00	67.4945	1.23
505.50	0.00	67.7801	1.23
506.00	0.00	68.0660	1.23
506.50	0.00	68.3522	1.23
507.00	0.00	68.6387	1.23
507.50	0.00	68.9255	1.23
508.00	0.00	69.2125	1.23
508.50	0.00	69.4999	1.23
509.00	0.00	69.7875	1.23
509.50	0.00	70.0753	1.23
510.00	0.00	70.3634	1.23
510.50	0.00	70.6518	1.23
511.00	0.00	70.9405	1.23
511.50	0.00	71.2293	1.23
512.00	0.00	71.5185	1.23
512.50	0.00	71.8079	1.23
513.00	0.00	72.0975	1.23
513.50	0.00	72.3873	1.23
514.00	0.00	72.6774	1.23
514.50	0.00	72.9678	1.23
515.00	0.00	73.2583	1.23
515.50	0.00	73.5491	1.23
516.00	0.00	73.8401	1.23
516.50	0.00	74.1313	1.23
517.00	0.00	74.4227	1.23
517.50	0.00	74.7143	1.23
518.00	0.00	75.0062	1.23
518.50	0.00	75.2982	1.23
519.00	0.00	75.5904	1.23
519.50	0.00	75.8828	1.23
520.00	0.00	76.1754	1.23
520.50	0.00	76.4682	1.23
521.00	0.00	76.7612	1.23
521.50	0.00	77.0544	1.23
522.00	0.00	77.3477	1.23
522.50	0.00	77.6412	1.23
523.00	0.00	77.9349	1.23
523.50	0.00	78.2287	1.23
524.00	0.00	78.5227	1.23
524.50	0.00	78.8168	1.23
525.00	0.00	79.1111	1.23
525.50	0.00	79.4056	1.23
526.00	0.00	79.7002	1.23
526.50	0.00	79.9949	1.23
527.00	0.00	80.2898	1.23
527.50	0.00	80.5848	1.23
528.00	0.00	80.8799	1.23
528.50	0.00	81.1752	1.23
529.00	0.00	81.4706	1.23
529.50	0.00	81.7661	1.23
530.00	0.00	82.0617	1.23
530.50	0.00	82.3574	1.23
531.00	0.00	82.6533	1.23
531.50	0.00	82.9492	1.23
532.00	0.00	83.2453	1.23
532.50	0.00	83.5414	1.23
533.00	0.00	83.8376	1.23
533.50	0.00	84.1340	1.23
534.00	0.00	84.4304	1.23
534.50	0.00	84.7269	1.23
535.00	0.00	85.0235	1.23
535.50	0.00	85.3201	1.23
536.00	0.00	85.6168	1.23
536.50	0.00	85.9136	1.23
537.00	0.00	86.2105	1.23
537.50	0.00	86.5074	1.23
538.00	0.00	86.8044	1.23
538.50	0.00	87.1014	1.23
539.00	0.00	87.3985	1.23
539.50	0.00	87.6957	1.23
540.00	0.00	87.9928	1.23
540.50	0.00	88.2900	1.23
541.00	0.00	88.5873	1.23
541.50	0.00	88.8846	1.23
542.00	0.00	89.1819	1.23
542.50	0.00	89.4792	1.23
543.00	0.00	89.7766	1.23
543.50	0.00	90.0740	1.23
544.00	0.00	90.3714	1.23
544.50	0.00	90.6688	1.23
545.00	0.00	90.9662	1.23
545.50	0.00	91.2636	1.23
546.00	0.00	91.5611	1.23
546.50	0.00	91.8585	1.23
547.00	0.00	92.1559	1.23
547.50	0.00	92.4533	1.23
548.00	0.00	92.7507	1.23
548.50	0.00	93.0481	1.23
549.00	0.00	93.3454	1.23
549.50	0.00	93.6428	1.23
550.00	0.00	93.9401	1.23
550.50	0.00	94.2374	1.23
551.00	0.00	94.5346	1.23
551.50	0.00	94.8318	1.23
552.00	0.00	95.1290	1.23
552.50	0.00	95.4261	1.23
553.00	0.00	95.7232	1.23
553.50	0.00	96.0202	1.23
554.00	0.00	96.3172	1.23
554.50	0.00	96.6141	1.23
555.00	0.00	96.9110	1.23
555.50	0.00	97.2078	1.23
556.00	0.00	97.5045	1.23
556.50	0.00	97.8012	1.23
557.00	0.00	98.0978	1.23
557.50	0.00	98.3943	1.23
558.00	0.00	98.6907	1.23
558.50	0.00	98.9871	1.23
559.00	0.00	99.2833	1.23
559.50	0.00	99.5795	1.23
560.00	0.00	99.8756	1.23
560.50	0.00	100.1716	1.23
561.00	0.00	100.4675	1.23
561.50	0.00	100.7632	1.23
562.00	0.00	101.0589	1.23
562.50	0.00	101.3545	1.23
563.00	0.00	101.6500	1.23
563.50	0.00	101.9453	1.23
564.00	0.00	102.2405	1.23
564.50	0.00	102.5356	1.23
565.00	0.00	102.8306	1.23
565.50	0.00	103.1255	1.23
566.00	0.00	103.4202	1.23
566.50	0.00	103.7148	1.23
567.00	0.00	104.0092	1.23
567.50	0.00	104.3035	1.23
568.00	0.00	104.5977	1.23
568.50	0.00	104.8917	1.23
569.00	0.00	105.1856	1.23
569.50	0.00	105.4793	1.23
570.00	0.00	105.7729	1.23
570.50	0.00	106.0663	1.23
571.00	0.00	106.3595	1.23
571.50	0.00	106.6526	1.23
572.00	0.00	106.9455	1.23
572.50	0.00	107.2383	1.23
573.00	0.00	107.5308	1.23
573.50	0.00	107.8232	1.23
574.00	0.00	108.1155	1.23
574.50	0.00	108.4075	1.23
575.00	0.00	108.6994	1.23
575.50	0.00	108.9910	1.23
576.00	0.00	109.2825	1.23
576.50	0.00	109.5738	1.23
577.00	0.00	109.8649	1.23
577.50	0.00	110.1558	1.23
578.00	0.00	110.4464	1.23
578.50	0.00	110.7369	1.23
579.00	0.00	111.0272	1.23
579.50	0.00	111.3173	1.23
580.00	0.00	111.6071	1.23
580.50	0.00	111.8967	1.23
581.00	0.00	112.1862	1.23
581.50	0.00	112.4754	1.23
582.00	0.00	112.7643	1.23
582.50	0.00	113.0531	1.23
583.00	0.00	113.3416	1.23
583.50	0.00	113.6299	1.23
584.00	0.00	113.9180	1.23
584.50	0.00	114.2058	1.23
585.00	0.00	114.4933	1.23
585.50	0.00	114.7807	1.23
586.00	0.00	115.0678	1.23
586.50	0.00	115.3546	1.23
587.00	0.00	115.6412	1.23
587.50	0.00	115.9276	1.23
588.00	0.00	116.2137	1.23
588.50	0.00	116.4995	1.23
589.00	0.00	116.7851	1.23
589.50	0.00	117.0704	1.23
590.00	0.00	117.3554	1.23
590.50	0.00	117.6402	1.23
591.00	0.00	117.9247	1.23
591.50	0.00	118.2089	1.23
592.00	0.00	118.4929	1.23
592.50	0.00	118.7766	1.23
593.00	0.00	119.0600	1.23
593.50	0.00	119.3431	1.23
594.00	0.00	119.6260	1.23
594.50	0.00	119.9085	1.23
595.00	0.00	120.1908	1.23
595.50	0.00	120.4728	1.23
596.00	0.00	120.7544	1.23
596.50	0.00	121.0358	1.23
597.00	0.00	121.3169	1.23
597.50	0.00	121.5977	1.23
598.00	0.00	121.8782	1.23
598.50	0.00	122.1584	1.23
599.00	0.00	122.4383	1.23
599.50	0.00	122.7178	1.23
600.00	0.00	122.9971	1.23
600.50	0.00	123.2760	1.23
601.00	0.00	123.5547	1.23
601.50	0.00	123.8330	1.23
602.00	0.00	124.1110	1.23
602.50	0.00	124.3887	1.23
603.00	0.00	124.6660	1.23
603.50	0.00	124.9430	1.23
604.00	0.00	125.2197	1.23
604.50	0.00	125.4961	1.23
605.00	0.00	125.7721	1.23
605.50	0.00	126.0478	1.23
606.00	0.00	126.3232	1.23
606.50	0.00	126.5982	1.23
607.00	0.00	126.8729	1.23
607.50	0.00	127.1473	1.23
608.00	0.00	127.4213	1.23
608.50	0.00	127.6949	1.23
609.00	0.00	127.9682	1.23
609.50	0.00	128.2412	1.23
610.00	0.00	128.5138	1.23
610.50	0.00	128.7861	1.23
611.00	0.00	129.0580	1.23
611.50	0.00	129.3295	1.23
612.00	0.00	129.6007	1.23
612.50	0.00	129.8715	1.23
613.00	0.00	130.1420	1.23
613.50	0.00	130.4121	1.23
614.00	0.00	130.6819	1.23
614.50	0.00	130.9512	1.23
615.00	0.00	131.2202	1.23
615.50	0.00	131.4889	1.23
616.00	0.00	131.7571	1.23
616.50	0.00	132.0250	1.23
617.00	0.00	132.2925	1.23
617.50	0.00	132.5597	1.23
618.00	0.00	132.8264	1.23
618.50	0.00	133.0928	1.23
619.00	0.00	133.3588	1.23
619.50	0.00	133.6244	1.23
620.00	0.00	133.8897	1.23
620.50	0.00	134.1545	1.23
621.00	0.00	134.4190	1.23
621.50	0.00	134.6830	1.23
622.00	0.00	134.9467	1.23
622.50	0.00	135.2100	1.23
623.00	0.00	135.4729	1.23
623.50	0.00	135.7354	1.23
624.00	0.00	135.9975	1.23
624.50	0.00	136.2592	1.23
625.00	0.00	136.5205	1.23
625.50	0.00	136.7814	1.23
626.00	0.00	137.0419	1.23
626.50	0.00	137.3020	1.23
627.00	0.00	137.5617	1.23
627.50	0.00	137.8209	1.23
628.00	0.00	138.0798	1.23
628.50	0.00	138.3383	1.23
629.00	0.00	138.5963	1.23
629.50	0.00	138.8540	1.23
630.00	0.00	139.1112	1.23
630.50	0.00	139.3681	1.23
631.00	0.00	139.6245	1.23
631.50	0.00	139.8805	1.23
632.00	0.00	140.1360	1.23
632.50	0.00	140.3912	1.23
633.00	0.00	140.6459	1.23
633.50	0.00	140.9002	1.23
634.00	0.00	141.1541	1.23
634.50	0.00	141.4076	1.23
635.00	0.00	141.6606	1.23
635.50	0.00	141.9133	1.23
636.00	0.00	142.1655	1.23
636.50	0.00	142.4172	1.23
637.00	0.00	142.6686	1.23
637.50	0.00	142.9195	1.23
638.00	0.00	143.1700	1.23
638.50	0.00	143.4200	1.23
639.00	0.00	143.6696	1.23
639.50	0.00	143.9188	1.23
640.00	0.00	144.1676	1.23
640.50	0.00	144.4159	1.23
641.00	0.00	144.6638	1.23
641.50	0.00	144.9112	1.23
642.00	0.00	145.1582	1.23
642.50	0.00	145.4048	1.23
643.00	0.00	145.6509	1.23
643.50	0.00	145.8966	1.23
644.00	0.00	146.1418	1.23
644.50	0.00	146.3866	1.23
645.00	0.00	146.6310	1.23
645.50	0.00	146.8749	1.23
646.00	0.00	147.1184	1.23
646.50	0.00	147.3614	1.23
647.00	0.00	147.6040	1.23
647.50	0.00	147.8461	1.23
648.00	0.00	148.0878	1.23
648.50	0.00	148.3291	1.23
649.00	0.00	148.5699	1.23
649.50	0.00	148.8102	1.23
650.00	0.00	149.0501	1.23
650.50	0.00	149.2895	1.23
651.00	0.00	149.5285	1.23
651.50	0.00	149.7671	1.23
652.00	0.00	150.0052	1.23
652.50	0.00	150.2428	1.23
653.00	0.00	150.4800	1.23
653.50	0.00	150.7167	1.23
654.00	0.00	150.9530	1.23
654.50	0.00	151.1888	1.23
655.00	0.00	151.4241	1.23
655.50	0.00	151.6590	1.23
656.00	0.00	151.8935	1.23
656.50	0.00	152.1274	1.23
657.00	0.00	152.3610	1.23
657.50	0.00	152.5940	1.23
658.00	0.00	152.8267	1.23
658.50	0.00	153.0588	1.23
659.00	0.00	153.2905	1.23
659.50	0.00	153.5217	1.23
660.00	0.00	153.7525	1.23
660.50	0.00	153.9828	1.23
661.00	0.00	154.2126	1.23
661.50	0.00	154.4420	1.23
662.00	0.00	154.6709	1.23
662.50	0.00	154.8994	1.23
663.00	0.00	155.1274	1.23
663.50	0.00	155.3549	1.23
664.00	0.00	155.5820	1.23
664.50	0.00	155.8086	1.23
665.00	0.00	156.0347	1.23
665.50	0.00	156.2604	1.23
666.00	0.00	156.4856	1.23
666.50	0.00	156.7103	1.23
667.00	0.00	156.9346	1.23
667.50	0.00	157.1584	1.23
668.00	0.00	157.3817	1.23
668.50	0.00	157.6046	1.23
669.00	0.00	157.8270	1.23
669.50	0.00	158.0489	1.23
670.00	0.00	158.2704	1.23
670.50	0.00	158.4914	1.23
671.00	0.00	158.7120	1.23
671.50	0.00	158.9320	1.23
672.00	0.00	159.1516	1.23
672.50	0.00	159.3708	1.23
673.00	0.00	159.5894	1.23
673.50	0.00	159.8076	1.23
674.00	0.00	160.0253	1.23
674.50	0.00	160.2426	1.23
675.00	0.00	160.4594	1.23
675.50	0.00	160.6757	1.23
676.00	0.00	160.8915	1.23
676.50	0.00	161.1069	1.23
677.00	0.00	161.3218	1.23
677.50	0.00	161.5363	1.23
678.00	0.00	161.7502	1.23
678.50	0.00	161.9637	1.23
679.00	0.00	162.1768	1.23
679.50	0.00	162.3893	1.23
680.00	0.00	162.6014	1.23
680.50	0.00	162.8130	1.23
681.00	0.00	163.0242	1.23
681.50	0.00	163.2349	1.23
682.00	0.00	163.4451	1.23
682.50	0.00	163.6548	1.23
683.00	0.00	163.8641	1.23
683.50	0.00	164.0729	1.23
684.00	0.00	164.2812	1.23
684.50	0.00	164.4891	1.23
685.00	0.00	164.6965	1.23
685.50	0.00	164.9034	1.23
686.00	0.00	165.1099	1.23
686.50	0.00	165.3158	1.23
687.00	0.00	165.5213	1.23
687.50	0.00	165.7264	1.23
688.00	0.00	165.9310	1.23
688.50	0.00	166.1351	1.23
689.00	0.00	166.3387	1.23
689.50	0.00	166.5419	1.23
690.00	0.00	166.7445	1.23
690.50	0.00	166.9468	1.23
691.00	0.00	167.1485	1.23
691.50	0.00	167.3498	1.23
692.00	0.00	167.5506	1.23
692.50	0.00	167.7510	1.23
693.00	0.00	167.9509	1.23
693.50	0.00	168.1503	1.23
694.00	0.00	168.3492	1.23
694.50	0.00	168.5477	1.23
695.00	0.00	168.7457	1.23
695.50	0.00	168.9432	1.23
696.00	0.00	169.1403	1.23
696.50	0.00	169.3369	1.23
697.00	0.00	169.5331	1.23
697.50	0.00	169.7287	1.23
698.00	0.00	169.9239	1.23
698.50	0.00	170.1187	1.23
699.00	0.00	170.3129	1.23
699.50	0.00	170.5067	1.23
700.00	0.00	170.7001	1.23
700.50	0.00	170.8930	1.23
701.00	0.00	171.0854	1.23
701.50	0.00	171.2773	1.23
702.00	0.00	171.4688	1.23
702.50	0.00	171.6598	1.23
703.00	0.00	171.8503	1.23
703.50	0.00	172.0404	1.23
704.00	0.00	172.2300	1.23
704.50	0.00	172.4192	1.23
705.00	0.00	172.6079	1.23
705.50	0.00	172.7961	1.23
706.00	0.00	172.9838	1.23
706.50	0.00	173.1711	1.23
707.00	0.00	173.3580	1.23
707.50	0.00	173.5443	1.23
708.00	0.00	173.7302	1.23
708.50	0.00	173.9157	1.23
709.00	0.00	174.1007	1.23
709.50	0.00	174.2852	1.23
710.00	0.00	174.4692	1.23
710.50	0.00	174.6528	1.23
711.00	0.00	174.8360	1.23
711.50	0.00	175.0187	1.23
712.00	0.00	175.2009	1.23
712.50	0.00	175.3826	1.23
713.00	0.00	175.5639	1.23
713.50	0.00	175.7447	1.23
714.00	0.00	175.9251	1.23
714.50	0.00	176.1050	1.23
715.00	0.00	176.2845	1.23
715.50	0.00	176.4635	1.23
716.00	0.00	176.6420	1.23
716.50	0.00	176.8201	1.23
717.00	0.00	176.9977	1.23
717.50	0.00	177.1749	1.23
718.00	0.00	177.3516	1.23
718.50	0.00	177.5278	1.23
719.00	0.00	177.7036	1.23
719.50	0.00	177.8790	1.23
720.00	0.00	178.0538	1.23
720.50	0.00	178.2283	1.23
721.00	0.00	178.4022	1.23
721.50	0.00	178.5757	1.23
722.00	0.00	178.7488	1.23
722.50	0.00	178.9214	1.23
723.00	0.00	179.0935	1.23
723.50	0.00	179.2652	1.23
724.00	0.00	179.4365	1.23
724.50	0.00	179.6072	1.23
725.00	0.00	179.7776	1.23
725.50	0.00	179.9474	1.23
726.00	0.00	180.1169	1.23
726.50	0.00	180.2858	1.23
727.00	0.00	180.4543	1.23
727.50	0.00	180.6224	1.23
728.00	0.00	180.7900	1.23
728.50	0.00	180.9572	1.23
729.00	0.00	181.1239	1.23
729.50	0.00	181.2901	1.23
730.00	0.00	181.4559	1.23
730.50	0.00	181.6213	1.23
731.00	0.00	181.7862	1.23
731.50	0.00	181.9506	1.23
732.00	0.00	182.1146	1.23
732.50	0.00	182.2782	1.23
733.00	0.00	182.4413	1.23
733.50	0.00	182.6039	1.23
734.00	0.00	182.7661	1.23
734.50	0.00	182.9279	1.23
735.00	0.00	183.0892	1.23
735.50	0.00	183.2500	1.23
736.00	0.00	183.4104	1.23
736.50	0.00	183.5704	1.23
737.00	0.00	183.7299	1.23
737.50	0.00	183.8890	1.23
738.00	0.00	184.0476	1.23
738.50	0.00	184.2057	1.23
739.00	0.00	184.3635	1.23
739.50	0.00	184.5207	1.23
740.00	0.00	184.6776	1.23
740.50	0.00	184.8339	1.23
741.00	0.00	184.9899	1.23
741.50	0.00	185.1453	1.23
742.00	0.00	185.3004	1.23
742.50	0.00	185.4550	1.23
743.00	0.00	185.6091	1.23
743.50	0.00	185.7628	1.23
744.00	0.00	185.9161	1.23
744.50	0.00	186.0689	1.23
745.00	0.00	186.2212	1.23
745.50	0.00	186.3732	1.23
746.00	0.00	186.5246	1.23
746.50	0.00	186.6757	1.23
747.00	0.00	186.8262	1.23
747.50	0.00	186.9764	1.23
748.00	0.00	187.1261	1.23
748.50	0.00	187.2753	1.23
749.00	0.00	187.4241	1.23
749.50	0.00	187.5725	1.23
750.00	0.00	187.7204	1.23
750.50	0.00	187.8679	1.23
751.00	0.00	188.0149	1.23
751.50	0.00	188.1615	1.23
752.00	0.00	188.3076	1.23
752.50	0.00	188.4533	1.23
753.00	0.00	188.5985	1.23
753.50	0.00	188.7433	1.23
754.00	0.00	188.8877	1.23
754.50	0.00	189.0316	1.23
755.00	0.00	189.1751	1.23
755.50	0.00	189.3181	1.23
756.00	0.00	189.4607	1.23
756.50	0.00	189.6029	1.23
757.00	0.00	189.7446	1.23
757.50	0.00	189.8858	1.23
758.00	0.00	190.0266	1.23
758.50	0.00	190.1670	1.23
759.00	0.00	190.3069	1.23
759.50	0.00	190.4464	1.23
760.00	0.00	190.5854	1.23
760.50	0.00	190.7240	1.23
761.00	0.00	190.8622	1.23
761.50	0.00	190.9999	1.23
762.00	0.00	191.1372	1.23
762.50	0.00	191.2740	1.23
763.00	0.00	191.4104	1.23
763.50	0.00	191.5463	1.23
764.00	0.00	191.6818	1.23
764.50	0.00	191.8168	1.23
765.00	0.00	191.9514	1.23
765.50	0.00	192.0856	1.23
766.00	0.00	192.2193	1.23
766.50	0.00	192.3525	1.23
767.00	0.00	192.4854	1.23
767.50	0.00	192.6177	1.23
768.00	0.00	192.7497	1.23
768.50	0.00	192.8811	1.23
769.00	0.00	193.0122	1.23
769.50	0.00	193.1428	1.23
770.00	0.00	193.2729	1.23
770.50	0.00	193.4026	1.23
771.00	0.00	193.5319	1.23
771.50	0.00	193.6607	1.23
772.00	0.00	193.7890	1.23
772.50	0.00	193.9170	1.23
773.00	0.00	194.0444	1.23
773.50	0.00	194.1715	1.23
774.00	0.00	194.2980	1.23
774.50	0.00	194.4241	1.23
775.00	0.00	194.5498	1.23
775.50	0.00	194.6751	1.23
776.00	0.00	194.7998	1.23
776.50	0.00	194.9242	1.23
777.00	0.00	195.0481	1.23
777.50	0.00	195.1715	1.23
778.00	0.00	195.2945	1.23
778.50	0.00	195.4170	1.23
779.00	0.00	195.5391	1.23
779.50	0.00	195.6607	1.23
780.00	0.00	195.7819	1.23
780.50	0.00	195.9026	1.23
781.00	0.00	196.0229	1.23
781.50	0.00	196.1427	1.23
782.00	0.00	196.2621	1.23
782.50	0.00	196.3810	1.23
783.00	0.00	196.4995	1.23
783.50	0.00	196.6175	1.23
784.00	0.00	196.7351	1.23
784.50	0.00	196.8522	1.23
785.00	0.00	196.9688	1.23
785.50	0.00	197.0850	1.23
786.00	0.00	197.2008	1.23
786.50	0.00	197.3161	1.23
787.00	0.00	197.4309	1.23
787.50	0.00	197.5453	1.23
788.00	0.00	197.6592	1.23
788.50	0.00	197.7726	1.23
789.00	0.00	197.8856	1.23
789.50	0.00	197.9982	1.23
790.00	0.00	198.1103	1.23
790.50	0.00	198.2219	1.23
791.00	0.00	198.3330	1.23
791.50	0.00	198.4437	1.23
792.00	0.00	198.5540	1.23
792.50	0.00	198.6637	1.23
793.00	0.00	198.7731	1.23
793.50	0.00	198.8819	1.23
794.00	0.00	198.9903	1.23
794.50	0.00	199.0982	1.23
795.00	0.00	199.2057	1.23
795.50	0.00	199.3127	1.23
796.00	0.00	199.4192	1.23
796.50	0.00	199.5253	1.23
797.00	0.00	199.6308	1.23
797.50	0.00	199.7360	1.23
798.00	0.00	199.8406	1.23
798.50	0.00	199.9448	1.23
799.00	0.00	200.0485	1.23
799.50	0.00	200.1518	1.23
800.00	0.00	200.2545	1.23
800.50	0.00	200.3568	1.23
801.00	0.00	200.4587	1.23
801.50	0.00	200.5600	1.23
802.00	0.00	200.6609	1.23
802.50	0.00	200.7613	1.23
803.00	0.00	200.8612	1.23
803.50	0.00	200.9607	1.23
804.00	0.00	201.0597	1.23
804.50	0.00	201.1582	1.23
805.00	0.00	201.2562	1.23
805.50	0.00	201.3537	1.23
806.00	0.00	201.4508	1.23
806.50	0.00	201.5474	1.23
807.00	0.00	201.6435	1.23
807.50	0.00	201.7391	1.23
808.00	0.00	201.8342	1.23
808.50	0.00	201.9289	1.23
809.00	0.00	202.0231	1.23
809.50	0.00	202.1167	1.23
810.00	0.00	202.2099	1.23
810.50	0.00	202.3026	1.23
811.00	0.00	202.3948	1.23
811.50	0.00	202.4866	1.23
812.00	0.00	202.5778	1.23
812.50	0.00	202.6686	1.23
813.00	0.00	202.7588	1.23
813.50	0.00	202.8486	1.23
814.00	0.00	202.9379	1.23
814.50	0.00	203.0266	1.23
815.00	0.00	203.1149	1.23
815.50	0.00	203.2027	1.23
816.00	0.00	203.2900	1.23
816.50	0.00	203.3768	1.23
817.00	0.00	203.4631	1.23
817.50	0.00	203.5488	1.23
818.00	0.00	203.6341	1.23
818.50	0.00	203.7189	1.23
819.00	0.00	203.8032	1.23
819.50	0.00	203.8870	1.23
820.00	0.00	203.9703	1.23
820.50	0.00	204.0530	1.23
821.00	0.00	204.1353	1.23
821.50	0.00	204.2170	1.23
822.00	0.00	204.2983	1.23
822.50	0.00	204.3790	1.23
823.00	0.00	204.4592	1.23
823.50	0.00	204.5390	1.23
824.00	0.00	204.6182	1.23
824.50	0.00	204.6968	1.23
825.00	0.00	204.7750	1.23
825.50	0.00	204.8527	1.23
826.00	0.00	204.9298	1.23
826.50	0.00	205.0064	1.23
827.00	0.00	205.0825	1.23
827.50	0.00	205.1581	1.23
828.00	0.00	205.2331	1.23
828.50	0.00	205.3077	1.23
829.00	0.00	205.3817	1.23
829.50	0.00	205.4552	1.23
830.00	0.00	205.5281	1.23
830.50	0.00	205.6006	1.23
831.00	0.00	205.6725	1.23
831.50	0.00	205.7438	1.23
832.00	0.00	205.8147	1.23
832.50	0.00	205.8850	1.23
833.00	0.00	205.9548	1.23
833.50	0.00	206.0240	1.23
834.00	0.00	206.0927	1.23
834.50	0.00	206.1609	1.23
835.00	0.00	206.2285	1.23
835.50	0.00	206.2956	1.23
836.00	0.00	206.3622	1.23
836.50	0.00	206.4282	1.23
837.00	0.00	206.4936	1.23
837.50	0.00	206.5586	1.23
838.00	0.00	206.6230	1.23
838.50	0.00	206.6868	1.23
839.00	0.00	206.7501	1.23
839.50	0.00	206.8128	1.23
840.00	0.00	206.8750	1.23
840.50	0.00	206.9367	1.23
841.00	0.00	206.9977	1.23
841.50	0.00	207.0583	1.23
842.00	0.00	207.1183	1.23
842.50	0.00	207.1777	1.23
843.00	0.00	207.2366	1.23
843.50	0.00	207.2949	1.23
844.00	0.00	207.3526	1.23
844.50	0.00	207.4098	1.23
845.00	0.00	207.4664	1.23
845.50	0.00	207.5225	1.23
846.00	0.00	207.5780	1.23
846.50	0.00	207.6329	1.23
847.00	0.00	207.6873	1.23
847.50	0.00	207.7411	1.23
848.00	0.00	207.7943	1.23
848.50	0.00	207.8470	1.23
849.00	0.00	207.8991	1.23
849.50	0.00	207.9506	1.23
850.00	0.00	208.0016	1.23
850.50	0.00	208.0519	1.23
851.00	0.00	208.1017	1.23
851.50	0.00	208.1509	1.23
852.00	0.00	208.1995	1.23
852.50	0.00	208.2476	1.23
853.00	0.00	208.2951	1.23
853.50	0.00	208.3419	1.23
854.00	0.00	208.3882	1.23
854.50	0.00	208.4340	1.23
855.00	0.00	208.4791	1.23
855.50	0.00	208.5236	1.23
856.00	0.00	208.5676	1.23
856.50	0.00	208.6109	1.23
857.00	0.00	208.6537	1.23
857.50	0.00	208.6959	1.23
858.00	0.00	208.7375	1.23
858.50	0.00	208.7784	1.23
859.00	0.00	208.8188	1.23
859.50	0.00	208.8586	1.23
860.00	0.00	208.8978	1.23
860.50	0.00	208.9364	1.23
861.00	0.00	208.9744	1.23
861.50	0.00	209.0117	1.23
862.00	0.00	209.0485	1.23
862.50	0.00	209.0847	1.23
863.00	0.00	209.1202	1.23
863.50	0.00	209.1552	1.23
864.00	0.00	209.1895	1.23
864.50	0.00	209.2233	1.23
865.00	0.00	209.2564	1.23
865.50	0.00	209.2889	1.23
866.00	0.00	209.3208	1.23
866.50	0.00	209.3521	1.23
867.00	0.00	209.3827	1.23
867.50	0.00	209.4127	1.23
868.00	0.00	209.4422	1.23
868.50	0.00	209.4710	1.23
869.00	0.00	209.4991	1.23
869.50	0.00	209.5267	1.23
870.00	0.00	209.5536	1.23
870.50	0.00	209.5799	1.23
871.00	0.00	209.6056	1.23
871.50	0.00	209.6306	1.23
872.00	0.00	209.6550	1.23
872.50	0.00	209.6788	1.23
873.00	0.00	209.7020	1.23
873.50	0.00	209.7245	1.23
874.00	0.00	209.7464	1.23
874.50	0.00	209.7676	1.23
875.00	0.00	209.7883	1.23
875.50	0.00	209.8082	1.23
876.00	0.00	209.8276	1.23
876.50	0.00	209.8463	1.23
877.00	0.00	209.8643	1.23
877.50	0.00	209.8817	1.23
878.00	0.00	209.8985	1.23
878.50	0.00	209.9146	1.23
879.00	0.00	209.9301	1.23
879.50	0.00	209.9450	1.23
880.00	0.00	209.9591	1.23
880.50	0.00	209.9727	1.23
881.00	0.00	209.9856	1.23
881.50	0.00	209.9978	1.23
882.00	0.00	210.0094	1.23
882.50	0.00	210.0203	1.23
883.00	0.00	210.0306	1.23
883.50	0.00	210.0402	1.23
884.00	0.00	210.0492	1.23
884.50	0.00	210.0575	1.23
885.00	0.00	210.0652	1.23
885.50	0.00	210.0722	1.23
886.00	0.00	210.0785	1.23
886.50	0.00	210.0842	1.23
887.00	0.00	210.0892	1.23
887.50	0.00	210.0935	1.23
888.00	0.00	210.0972	1.23
888.50	0.00	210.1002	1.23
889.00	0.00	210.1026	1.23
889.50	0.00	210.1043	1.23
890.00	0.00	210.1053	1.23
890.50	0.00	210.1056	1.23
891.00	0.00	210.1053	1.23
891.50	0.00	210.1043	1.23
892.00	0.00	210.1027	1.23
892.50	0.00	210.1004	1.23
893.00	0.00	210.0974	1.23
893.50	0.00	210.0937	1.23
894.00	0.00	210.0893	1.23
894.50	0.00	210.0843	1.23
895.00	0.00	210.0786	1.23
895.50	0.00	210.0722	1.23
896.00	0.00	210.0652	1.23
896.50	0.00	210.0575	1.23
897.00	0.00	210.0491	1.23
897.50	0.00	210.0400	1.23
898.00	0.00	210.0302	1.23
898.50	0.00	210.0198	1.23
899.00	0.00	210.0086	1.23
899.50	0.00	209.9968	1.23
900.00	0.00	209.9843	1.23
900.50	0.00	209.0132	3.51
901.00	0.00	209.0233	3.51
901.50	0.00	209.0332	3.51
902.00	0.00	209.0426	3.51
902.50	0.00	209.0518	3.51
903.00	0.00	209.0606	3.51
903.50	0.00	209.0690	3.51
904.00	0.00	209.0771	3.51
904.50	0.00	209.0849	3.51
905.00	0.00	209.0923	3.51
905.50	0.00	209.0994	3.51
906.00	0.00	209.1061	3.51
906.50	0.00	209.1125	3.51
907.00	0.00	209.1186	3.51
907.50	0.00	209.1244	3.51
908.00	0.00	209.1298	3.51
908.50	0.00	209.1348	3.51
909.00	0.00	209.1396	3.51
909.50	0.00	209.1440	3.51
910.00	0.00	209.1480	3.51
910.50	0.00	209.1518	3.51
911.00	0.00	209.1552	3.51
911.50	0.00	209.1583	3.51
912.00	0.00	209.1610	3.51
912.50	0.00	209.1634	3.51
913.00	0.00	209.1655	3.51
913.50	0.00	209.1673	3.51
914.00	0.00	209.1687	3.51
914.50	0.00	209.1698	3.51
915.00	0.00	209.1706	3.51
915.50	0.00	209.1711	3.51
916.00	0.00	209.1712	3.51
916.50	0.00	209.1710	3.51
917.00	0.00	209.1705	3.51
917.50	0.00	209.1697	3.51
918.00	0.00	209.1685	3.51
918.50	0.00	209.1670	3.51
919.00	0.00	209.1652	3.51
919.50	0.00	209.1631	3.51
920.00	0.00	209.1607	3.51
920.50	0.00	209.1579	3.51
921.00	0.00	209.1549	3.51
921.50	0.00	209.1515	3.51
922.00	0.00	209.1478	3.51
922.50	0.00	209.1438	3.51
923.00	0.00	209.1394	3.51
923.50	0.00	209.1348	3.51
924.00	0.00	209.1299	3.51
924.50	0.00	209.1246	3.51
925.00	0.00	209.1190	3.51
925.50	0.00	209.1131	3.51
926.00	0.00	209.1069	3.51
926.50	0.00	209.1004	3.51
927.00	0.00	209.0936	3.51
927.50	0.00	209.0865	3.51
928.00	0.00	209.0791	3.51
928.50	0.00	209.0713	3.51
929.00	0.00	209.0633	3.51
929.50	0.00	209.0549	3.51
930.00	0.00	209.0463	3.51
930.50	0.00	209.0373	3.51
931.00	0.00	209.0281	3.51
931.50	0.00	209.0185	3.51
932.00	0.00	209.0087	3.51
932.50	0.00	208.9985	3.51
933.00	0.00	208.9881	3.51
933.50	0.00	208.9773	3.51
934.00	0.00	208.9662	3.51
934.50	0.00	208.9549	3.51
935.00	0.00	208.9432	3.51
935.50	0.00	208.9313	3.51
936.00	0.00	208.9190	3.51
936.50	0.00	208.9065	3.51
937.00	0.00	208.8937	3.51
937.50	0.00	208.8805	3.51
938.00	0.00	208.8671	3.51
938.50	0.00	208.8534	3.51
939.00	0.00	208.8394	3.51
939.50	0.00	208.8251	3.51
940.00	0.00	208.8105	3.51
940.50	0.00	208.7957	3.51
941.00	0.00	208.7805	3.51
941.50	0.00	208.7651	3.51
942.00	0.00	208.7493	3.51
942.50	0.00	208.7333	3.51
943.00	0.00	208.7170	3.51
943.50	0.00	208.7004	3.51
944.00	0.00	208.6835	3.51
944.50	0.00	208.6664	3.51
945.00	0.00	208.6489	3.51
945.50	0.00	208.6312	3.51
946.00	0.00	208.6132	3.51
946.50	0.00	208.5949	3.51
947.00	0.00	208.5763	3.51
947.50	0.00	208.5575	3.51
948.00	0.00	208.5383	3.51
948.50	0.00	208.5189	3.51
949.00	0.00	208.4992	3.51
949.50	0.00	208.4793	3.51
950.00	0.00	208.4590	3.51
950.50	0.00	208.4385	3.51
951.00	0.00	208.4177	3.51
951.50	0.00	208.3967	3.51
952.00	0.00	208.3753	3.51
952.50	0.00	208.3537	3.51
953.00	0.00	208.3319	3.51
953.50	0.00	208.3097	3.51
954.00	0.00	208.2873	3.51
954.50	0.00	208.2646	3.51
955.00	0.00	208.2416	3.51
955.50	0.00	208.2184	3.51
956.00	0.00	208.1949	3.51
956.50	0.00	208.1711	3.51
957.00	0.00	208.1471	3.51
957.50	0.00	208.1228	3.51
958.00	0.00	208.0983	3.51
958.50	0.00	208.0734	3.51
959.00	0.00	208.0483	3.51
959.50	0.00	208.0230	3.51
960.00	0.00	207.9974	3.51
960.50	0.00	207.9715	3.51
961.00	0.00	207.9454	3.51
961.50	0.00	207.9190	3.51
962.00	0.00	207.8923	3.51
962.50	0.00	207.8654	3.51
963.00	0.00	207.8382	3.51
963.50	0.00	207.8108	3.51
964.00	0.00	207.7831	3.51
964.50	0.00	207.7552	3.51
965.00	0.00	207.7270	3.51
965.50	0.00	207.6985	3.51
966.00	0.00	207.6698	3.51
966.50	0.00	207.6408	3.51
967.00	0.00	207.6116	3.51
967.50	0.00	207.5821	3.51
968.00	0.00	207.5524	3.51
968.50	0.00	207.5225	3.51
969.00	0.00	207.4922	3.51
969.50	0.00	207.4618	3.51
970.00	0.00	207.4311	3.51
970.50	0.00	207.4001	3.51
971.00	0.00	207.3689	3.51
971.50	0.00	207.3374	3.51
972.00	0.00	207.3057	3.51
972.50	0.00	207.2738	3.51
973.00	0.00	207.2416	3.51
973.50	0.00	207.2091	3.51
974.00	0.00	207.1764	3.51
974.50	0.00	207.1435	3.51
975.00	0.00	207.1103	3.51
975.50	0.00	207.0769	3.51
976.00	0.00	207.0433	3.51
976.50	0.00	207.0094	3.51
977.00	0.00	206.9753	3.51
977.50	0.00	206.9409	3.51
978.00	0.00	206.9063	3.51
978.50	0.00	206.8714	3.51
979.00	0.00	206.8363	3.51
979.50	0.00	206.8010	3.51
980.00	0.00	206.7655	3.51
980.50	0.00	206.7297	3.51
981.00	0.00	206.6937	3.51
981.50	0.00	206.6574	3.51
982.00	0.00	206.6209	3.51
982.50	0.00	206.5842	3.51
983.00	0.00	206.5473	3.51
983.50	0.00	206.5101	3.51
984.00	0.00	206.4727	3.51
984.50	0.00	206.4350	3.51
985.00	0.00	206.3971	3.51
985.50	0.00	206.3590	3.51
986.00	0.00	206.3207	3.51
986.50	0.00	206.2822	3.51
987.00	0.00	206.2434	3.51
987.50	0.00	206.2044	3.51
988.00	0.00	206.1651	3.51
988.50	0.00	206.1257	3.51
989.00	0.00	206.0860	3.51
989.50	0.00	206.0461	3.51
990.00	0.00	206.0060	3.51
990.50	0.00	205.9656	3.51
991.00	0.00	205.9251	3.51
991.50	0.00	205.8843	3.51
992.00	0.00	205.8433	3.51
992.50	0.00	205.8020	3.51
993.00	0.00	205.7606	3.51
993.50	0.00	205.7189	3.51
994.00	0.00	205.6771	3.51
994.50	0.00	205.6350	3.51
995.00	0.00	205.5926	3.51
995.50	0.00	205.5501	3.51
996.00	0.00	205.5074	3.51
996.50	0.00	205.4644	3.51
997.00	0.00	205.4212	3.51
997.50	0.00	205.3779	3.51
998.00	0.00	205.3343	3.51
998.50	0.00	205.2905	3.51
999.00	0.00	205.2464	3.51
999.50	0.00	205.2022	3.51
1000.00	0.00	205.1578	3.51
[END_OF_LAMPDATA]

[AMBIENT_TEMP]
21.0

[DEVICE_TEMP]
23.53

# pixel no	wavelength (nm)	irradiane responsivity (unit depends on the device class)	uncertainty (%, k=2)	dark1	dark2 (content depends on the instrument class)	raw1	stdev1	raw2	stdev2
[CALDATA]
0	0.00	1024	0.00	0.000	0	1024	0.00	512	0.00
1	306.56	0.000E+000	0.00	714.000	0	154.00	1.99	138.20	4.88
2	309.88	0.000E+000	0.00	687.800	0	187.00	1.61	188.00	5.77
3	313.19	0.000E+000	0.00	682.900	0	230.97	2.03	230.93	4.37
4	316.51	0.000E+000	0.00	684.000	0	278.53	2.71	270.73	5.56
5	319.83	0.000E+000	0.00	682.600	0	329.50	3.01	345.87	5.02
6	323.15	0.000E+000	0.00	685.600	0	376.97	2.15	380.33	3.66
7	326.47	0.000E+000	0.00	678.000	0	443.23	2.36	441.60	6.23
8	329.80	0.000E+000	0.00	683.500	0	504.20	2.59	523.33	5.11
9	333.12	0.000E+000	0.00	677.000	0	588.87	2.14	593.07	5.07
10	336.44	0.000E+000	0.00	683.800	0	680.47	1.70	696.80	4.72
11	339.76	0.000E+000	0.00	680.600	0	806.87	1.69	809.00	3.45
12	343.09	0.000E+000	0.00	680.200	0	961.80	1.65	948.93	4.66
13	346.41	0.000E+000	0.00	679.300	0	1142.30	1.84	1135.20	5.24
14	349.74	0.000E+000	0.00	675.600	0	1363.57	2.31	1361.87	5.29
15	353.06	4.737E-004	2.22	679.200	0	1594.80	2.09	1581.93	3.67
16	356.39	4.361E-004	2.22	681.800	0	1827.60	2.47	1834.80	4.30
17	359.72	4.208E-004	2.20	681.200	0	2044.33	2.44	2051.53	4.62
18	363.04	4.173E-004	2.19	678.700	0	2227.93	2.13	2231.27	5.04
19	366.37	4.162E-004	2.14	679.800	0	2370.97	1.83	2389.27	4.62
20	369.70	4.346E-004	2.14	681.600	0	2475.37	1.56	2474.40	4.80
21	373.03	4.452E-004	2.14	680.100	0	2576.93	1.80	2581.53	5.04
22	376.36	4.557E-004	2.10	686.900	0	2683.70	2.23	2692.40	4.46
23	379.69	4.637E-004	2.03	678.600	0	2829.50	1.86	2831.53	2.82
24	383.02	4.655E-004	2.04	683.500	0	3001.53	2.36	3005.07	4.02
25	386.35	4.634E-004	2.05	683.200	0	3220.00	2.03	3218.13	5.03
26	389.68	4.556E-004	2.02	676.900	0	3492.13	2.06	3484.20	5.44
27	393.02	4.418E-004	1.96	673.500	0	3823.33	2.46	3814.07	4.56
28	396.35	4.241E-004	1.90	682.200	0	4209.13	2.17	4204.53	3.42
29	399.68	4.038E-004	1.90	677.300	0	4665.53	2.11	4667.00	5.04
30	403.02	3.844E-004	1.86	677.900	0	5199.87	3.03	5191.87	4.29
31	406.35	3.616E-004	1.84	675.300	0	5828.00	2.91	5822.67	5.03
32	409.68	3.387E-004	1.81	678.800	0	6552.73	1.58	6551.13	5.09
33	413.02	3.168E-004	1.77	683.300	0	7383.73	2.34	7379.27	4.56
34	416.36	2.953E-004	1.74	679.900	0	8325.97	2.05	8324.93	4.07
35	419.69	2.759E-004	1.72	677.500	0	9364.83	1.64	9363.07	5.10
36	423.03	2.592E-004	1.70	681.100	0	10462.90	2.31	10461.27	4.76
37	426.36	2.454E-004	1.67	679.200	0	11576.23	2.09	11579.20	3.79
38	429.70	2.350E-004	1.65	676.600	0	12656.27	1.85	12662.47	3.63
39	433.04	2.284E-004	1.63	676.400	0	13677.37	2.00	13659.60	4.57
40	436.37	2.229E-004	1.60	681.500	0	14600.53	2.74	14605.33	4.17
41	439.71	2.209E-004	1.58	673.300	0	15406.23	1.71	15401.07	4.08
42	443.05	2.200E-004	1.58	676.100	0	16098.57	2.05	16111.93	3.13
43	446.39	2.214E-004	1.58	679.600	0	16681.63	1.67	16696.13	3.78
44	449.73	2.243E-004	1.58	679.800	0	17125.63	2.27	17151.80	4.42
45	453.07	2.293E-004	1.58	680.800	0	17460.73	2.17	17472.27	4.36
46	456.40	2.346E-004	1.58	677.800	0	17721.50	2.20	17742.80	3.47
47	459.74	2.407E-004	1.58	678.200	0	17953.90	1.95	17971.93	3.60
48	463.08	2.462E-004	1.58	680.500	0	18216.97	1.90	18237.33	3.60
49	466.42	2.511E-004	1.58	680.800	0	18525.40	2.57	18544.53	4.11
50	469.76	2.549E-004	1.58	679.200	0	18895.60	2.71	18926.33	4.83
51	473.10	2.574E-004	1.58	677.900	0	19383.73	1.66	19410.00	5.29
52	476.44	2.584E-004	1.57	680.600	0	19969.00	2.69	20005.07	4.46
53	479.78	2.584E-004	1.58	679.800	0	20664.90	3.05	20692.60	5.31
54	483.13	2.579E-004	1.57	680.200	0	21415.70	1.45	21438.20	4.64
55	486.47	2.574E-004	1.57	676.000	0	22139.83	2.77	22171.47	5.28
56	489.81	2.576E-004	1.57	679.800	0	22813.77	1.80	22853.53	3.78
57	493.15	2.579E-004	1.57	670.800	0	23491.77	2.32	23537.33	4.01
58	496.49	2.573E-004	1.57	676.700	0	24236.37	3.10	24297.00	3.45
59	499.83	2.556E-004	1.57	681.000	0	25110.90	2.42	25186.20	3.62
60	503.17	2.528E-004	1.57	676.800	0	26159.67	2.49	26225.27	4.94
61	506.52	2.484E-004	1.57	683.900	0	27341.83	2.49	27430.80	3.86
62	509.86	2.431E-004	1.57	683.100	0	28694.63	2.36	28802.27	4.30
63	513.20	2.374E-004	1.57	683.100	0	30200.70	1.97	30309.67	3.66
64	516.54	2.312E-004	1.57	682.300	0	31816.30	2.95	31948.20	5.02
65	519.88	2.249E-004	1.57	683.500	0	33562.40	2.50	33701.07	4.77
66	523.22	2.184E-004	1.57	677.900	0	35433.10	3.00	35588.73	4.40
67	526.57	2.119E-004	1.57	678.300	0	37380.07	3.01	37571.47	4.83
68	529.91	2.060E-004	1.57	677.700	0	39404.67	2.34	39610.87	3.93
69	533.25	2.004E-004	1.57	679.700	0	41429.37	3.00	41665.33	2.78
70	536.59	1.957E-004	1.57	684.600	0	43368.53	1.76	43646.60	3.87
71	539.93	1.922E-004	1.57	683.000	0	45166.97	2.51	45464.47	4.21
72	543.28	1.897E-004	1.57	679.300	0	46764.60	2.45	47092.67	4.49
73	546.62	1.885E-004	1.57	682.700	0	48059.00	2.36	48413.20	4.71
74	549.96	1.884E-004	1.57	673.400	0	49096.30	2.03	49475.33	4.74
75	553.30	1.893E-004	1.57	685.700	0	49849.57	2.47	50249.87	4.54
76	556.64	1.913E-004	1.57	685.600	0	50343.30	2.74	50755.60	4.85
77	559.98	1.939E-004	1.57	674.100	0	50643.63	2.41	51071.53	4.48
78	563.33	1.971E-004	1.57	688.000	0	50790.60	3.07	51225.20	5.61
79	566.67	2.006E-004	1.57	684.700	0	50846.23	2.90	51303.40	3.99
80	570.01	2.044E-004	1.57	680.900	0	50831.43	2.95	51291.67	4.82
81	573.35	2.086E-004	1.57	680.300	0	50741.97	4.01	51195.73	4.10
82	576.69	2.134E-004	1.57	680.700	0	50485.87	2.46	50940.60	3.94
83	580.03	2.187E-004	1.57	681.000	0	50145.67	2.90	50587.53	4.80
84	583.37	2.246E-004	1.57	681.100	0	49675.47	2.70	50111.53	5.69
85	586.71	2.311E-004	1.57	688.200	0	49095.27	2.57	49526.87	5.08
86	590.05	2.380E-004	1.57	688.600	0	48461.63	2.15	48894.93	4.50
87	593.39	2.452E-004	1.57	682.200	0	47811.70	3.41	48229.40	4.89
88	596.73	2.522E-004	1.57	680.800	0	47229.23	2.64	47637.93	4.08
89	600.07	2.578E-004	1.57	683.900	0	46905.90	3.30	47319.27	5.06
90	603.41	2.620E-004	1.57	685.600	0	46854.27	2.81	47262.80	4.97
91	606.75	2.649E-004	1.57	680.800	0	47003.57	2.34	47424.07	6.03
92	610.09	2.667E-004	1.56	688.900	0	47317.13	2.22	47761.00	4.73
93	613.43	2.679E-004	1.56	681.800	0	47772.50	3.02	48221.60	5.64
94	616.77	2.677E-004	1.56	684.900	0	48383.37	3.22	48878.33	3.99
95	620.11	2.668E-004	1.56	678.600	0	49187.30	2.41	49698.47	4.44
96	623.44	2.653E-004	1.56	681.700	0	50105.80	2.82	50630.13	4.59
97	626.78	2.635E-004	1.56	683.700	0	51034.53	2.62	51595.47	4.22
98	630.12	2.623E-004	1.56	686.200	0	51878.63	2.65	52464.40	4.64
99	633.45	2.624E-004	1.56	683.400	0	52499.70	1.90	53091.47	4.68
100	636.79	2.641E-004	1.56	685.300	0	52780.90	2.44	53384.53	5.27
101	640.13	2.675E-004	1.56	680.800	0	52735.37	2.90	53325.87	3.82
102	643.46	2.724E-004	1.56	686.200	0	52361.70	3.01	52953.40	4.63
103	646.80	2.778E-004	1.56	681.100	0	51934.83	2.88	52519.87	4.10
104	650.13	2.839E-004	1.56	682.200	0	51386.37	3.37	51955.60	3.00
105	653.47	2.903E-004	1.56	685.300	0	50776.73	2.97	51344.33	4.55
106	656.80	2.973E-004	1.56	687.500	0	50083.77	2.73	50653.53	4.46
107	660.14	3.040E-004	1.56	679.600	0	49484.97	2.15	50038.27	4.09
108	663.47	3.096E-004	1.56	685.300	0	49075.90	1.77	49628.27	3.90
109	666.80	3.136E-004	1.56	685.400	0	48915.47	2.57	49464.07	5.34
110	670.13	3.166E-004	1.56	687.900	0	48906.50	2.15	49459.40	4.15
111	673.47	3.188E-004	1.56	684.300	0	49029.50	2.66	49575.07	5.07
112	676.80	3.199E-004	1.56	683.500	0	49289.13	2.85	49844.67	5.50
113	680.13	3.207E-004	1.56	681.900	0	49590.43	2.81	50152.60	4.97
114	683.46	3.217E-004	1.56	684.300	0	49886.00	2.79	50445.13	3.74
115	686.79	3.223E-004	1.56	680.500	0	50183.93	3.08	50755.20	4.16
116	690.12	3.237E-004	1.56	682.000	0	50386.00	2.66	50958.20	2.91
117	693.45	3.257E-004	1.56	678.200	0	50460.70	2.89	51040.47	4.48
118	696.78	3.281E-004	1.56	683.000	0	50472.60	2.56	51057.00	6.19
119	700.10	3.310E-004	1.56	682.500	0	50416.30	3.00	50999.53	6.41
120	703.43	3.342E-004	1.56	680.200	0	50321.50	2.78	50899.73	3.80
121	706.76	3.365E-004	1.56	681.500	0	50293.50	3.15	50889.80	4.32
122	710.08	3.385E-004	1.56	680.500	0	50352.17	3.34	50951.47	4.77
123	713.41	3.397E-004	1.56	681.000	0	50503.80	2.76	51115.73	3.35
124	716.73	3.398E-004	1.56	682.100	0	50803.80	2.56	51429.60	5.40
125	720.06	3.394E-004	1.56	688.400	0	51169.97	2.28	51814.93	4.67
126	723.38	3.385E-004	1.56	692.700	0	51604.07	1.99	52277.93	5.25
127	726.70	3.376E-004	1.56	687.000	0	52105.30	2.15	52762.80	4.39
128	730.03	3.368E-004	1.56	682.500	0	52537.23	2.86	53209.80	3.94
129	733.35	3.370E-004	1.56	678.000	0	52832.03	1.84	53504.27	4.76
130	736.67	3.378E-004	1.56	681.200	0	52993.57	2.80	53674.20	5.19
131	739.99	3.398E-004	1.56	683.700	0	52977.37	3.35	53660.40	4.51
132	743.31	3.427E-004	1.56	681.200	0	52808.60	3.17	53497.20	2.80
133	746.63	3.467E-004	1.56	683.000	0	52493.17	3.64	53172.60	3.76
134	749.95	3.512E-004	1.56	683.300	0	52106.47	3.67	52779.13	4.05
135	753.26	3.559E-004	1.56	684.800	0	51676.67	3.17	52348.13	4.07
136	756.58	3.605E-004	1.56	687.700	0	51249.73	3.42	51923.80	4.26
137	759.90	3.654E-004	1.56	687.200	0	50808.30	2.56	51476.40	5.37
138	763.21	3.701E-004	1.56	683.300	0	50425.03	2.70	51076.20	4.55
139	766.53	3.743E-004	1.56	680.500	0	50110.03	2.30	50750.93	3.69
140	769.84	3.781E-004	1.56	681.500	0	49832.07	2.54	50470.47	4.06
141	773.15	3.817E-004	1.56	679.900	0	49575.53	2.51	50211.07	4.88
142	776.46	3.854E-004	1.56	685.300	0	49303.67	2.44	49941.47	4.60
143	779.77	3.900E-004	1.56	681.300	0	48923.93	2.72	49555.80	3.80
144	783.08	3.960E-004	1.56	684.500	0	48415.63	2.86	49020.47	4.60
145	786.39	4.033E-004	1.56	682.500	0	47723.27	2.52	48319.00	3.73
146	789.70	4.125E-004	1.56	685.700	0	46866.83	2.16	47437.13	3.69
147	793.01	4.230E-004	1.56	683.500	0	45906.87	3.10	46446.67	2.17
148	796.32	4.350E-004	1.56	685.900	0	44824.83	2.38	45342.80	4.48
149	799.62	4.487E-004	1.56	683.600	0	43658.63	2.45	44136.60	4.36
150	802.93	4.627E-004	1.56	691.700	0	42454.47	2.39	42930.00	3.69
151	806.23	4.781E-004	1.56	685.800	0	41250.20	2.04	41697.07	4.97
152	809.53	4.944E-004	1.56	685.800	0	40038.03	2.60	40459.87	4.33
153	812.84	5.113E-004	1.56	685.100	0	38842.13	2.27	39247.27	5.42
154	816.14	5.293E-004	1.56	683.100	0	37650.10	2.47	38029.47	4.99
155	819.44	5.481E-004	1.56	687.100	0	36478.83	2.91	36838.07	4.06
156	822.74	5.678E-004	1.56	686.000	0	35333.87	2.41	35668.80	4.27
157	826.04	5.892E-004	1.56	684.400	0	34144.00	2.40	34463.33	4.98
158	829.33	6.118E-004	1.56	686.300	0	32969.50	3.41	33272.93	4.15
159	832.63	6.361E-004	1.56	688.800	0	31816.23	2.67	32093.67	4.29
160	835.92	6.623E-004	1.56	686.100	0	30629.30	2.45	30893.20	4.80
161	839.22	6.911E-004	1.56	684.200	0	29441.83	2.27	29681.07	4.49
162	842.51	7.218E-004	1.56	685.700	0	28249.30	2.69	28476.73	3.49
163	845.80	7.553E-004	1.56	679.700	0	27076.27	2.51	27278.93	4.63
164	849.10	7.904E-004	1.56	683.900	0	25923.37	2.14	26113.53	3.82
165	852.39	8.278E-004	1.56	678.200	0	24823.93	2.23	24990.13	4.29
166	855.67	8.672E-004	1.56	677.200	0	23754.47	2.37	23900.27	3.67
167	858.96	9.068E-004	1.56	678.900	0	22740.83	1.86	22884.00	4.84
168	862.25	9.473E-004	1.56	681.800	0	21803.03	1.69	21936.93	4.59
169	865.53	9.885E-004	1.56	681.300	0	20904.00	2.62	21038.27	4.02
170	868.82	1.031E-003	1.56	683.800	0	20083.63	2.84	20198.20	3.77
171	872.10	1.073E-003	1.56	684.100	0	19312.37	2.63	19429.20	4.48
172	875.38	1.116E-003	1.56	680.300	0	18606.67	3.72	18706.00	3.80
173	878.67	1.156E-003	1.56	679.000	0	17962.47	2.48	18061.67	3.80
174	881.95	1.196E-003	1.56	685.200	0	17363.83	2.04	17460.40	5.10
175	885.22	1.236E-003	1.56	677.800	0	16806.47	2.60	16903.13	4.33
176	888.50	1.279E-003	1.56	682.100	0	16272.83	2.01	16348.93	4.97
177	891.78	1.320E-003	1.56	683.900	0	15745.97	1.90	15831.27	2.90
178	895.05	1.366E-003	1.56	679.300	0	15238.83	1.91	15307.20	3.34
179	898.33	1.412E-003	1.56	678.300	0	14726.73	1.82	14800.33	3.79
180	901.60	0.000E+000	0.00	685.700	0	14216.67	1.99	14276.87	5.73
181	904.87	0.000E+000	0.00	682.000	0	13703.40	2.01	13747.60	5.27
182	908.14	0.000E+000	0.00	685.900	0	13186.23	2.49	13243.40	3.59
183	911.41	0.000E+000	0.00	680.800	0	12676.67	2.51	12724.33	3.04
184	914.68	0.000E+000	0.00	683.400	0	12164.53	2.22	12212.47	4.02
185	917.94	0.000E+000	0.00	679.000	0	11674.97	2.68	11730.40	3.97
186	921.21	0.000E+000	0.00	685.100	0	11189.00	1.90	11225.27	3.65
187	924.47	0.000E+000	0.00	681.100	0	10722.20	1.75	10758.33	5.12
188	927.73	0.000E+000	0.00	690.100	0	10266.00	2.16	10322.07	4.50
189	930.99	0.000E+000	0.00	679.100	0	9804.07	1.93	9840.33	4.44
190	934.25	0.000E+000	0.00	684.500	0	9302.53	1.68	9351.67	5.74
191	937.51	0.000E+000	0.00	680.100	0	8796.27	2.02	8830.47	3.58
192	940.77	0.000E+000	0.00	684.700	0	8297.10	2.23	8324.93	3.53
193	944.02	0.000E+000	0.00	686.300	0	7866.53	2.30	7886.00	3.84
194	947.28	0.000E+000	0.00	685.600	0	7513.50	2.40	7526.00	4.66
195	950.53	0.000E+000	0.00	680.400	0	7206.43	2.30	7222.80	4.55
196	953.78	0.000E+000	0.00	680.600	0	6919.63	1.73	6949.00	4.81
197	957.03	0.000E+000	0.00	677.500	0	6648.60	2.20	6659.60	3.99
198	960.28	0.000E+000	0.00	680.600	0	6385.60	1.90	6406.20	4.45
199	963.53	0.000E+000	0.00	680.800	0	6133.10	1.75	6144.67	5.37
200	966.77	0.000E+000	0.00	684.000	0	5889.90	2.03	5901.27	3.81
201	970.02	0.000E+000	0.00	678.000	0	5648.07	2.46	5653.80	3.63
202	973.26	0.000E+000	0.00	676.900	0	5415.97	2.43	5420.13	3.95
203	976.50	0.000E+000	0.00	678.600	0	5179.70	2.68	5181.93	4.35
204	979.74	0.000E+000	0.00	682.700	0	4934.90	2.34	4947.33	4.46
205	982.98	0.000E+000	0.00	678.800	0	4700.47	2.25	4697.53	4.18
206	986.21	0.000E+000	0.00	680.600	0	4460.47	2.17	4471.07	4.12
207	989.45	0.000E+000	0.00	683.700	0	4224.87	2.13	4234.40	3.46
208	992.68	0.000E+000	0.00	682.400	0	3995.00	1.74	4004.07	4.94
209	995.91	0.000E+000	0.00	680.000	0	3766.40	1.88	3784.53	5.18
210	999.14	0.000E+000	0.00	678.300	0	3553.50	2.12	3556.93	4.03
211	1002.37	0.000E+000	0.00	681.900	0	3334.87	1.83	3337.27	3.57
212	1005.60	0.000E+000	0.00	678.300	0	3124.90	1.57	3128.33	4.14
213	1008.82	0.000E+000	0.00	675.900	0	2927.67	1.96	2923.53	4.33
214	1012.05	0.000E+000	0.00	680.300	0	2737.00	1.78	2751.53	4.69
215	1015.27	0.000E+000	0.00	682.100	0	2556.83	1.96	2559.60	5.34
216	1018.49	0.000E+000	0.00	684.700	0	2389.77	2.17	2405.47	3.22
217	1021.71	0.000E+000	0.00	682.700	0	2235.43	2.53	2246.60	4.06
218	1024.93	0.000E+000	0.00	680.200	0	2092.47	1.73	2093.27	3.34
219	1028.14	0.000E+000	0.00	678.200	0	1959.40	1.86	1966.67	4.09
220	1031.36	0.000E+000	0.00	683.500	0	1828.53	2.04	1837.93	4.35
221	1034.57	0.000E+000	0.00	679.900	0	1706.30	1.58	1712.33	4.24
222	1037.78	0.000E+000	0.00	682.000	0	1596.53	2.34	1600.13	4.94
223	1040.99	0.000E+000	0.00	677.100	0	1496.03	2.22	1490.13	3.89
224	1044.19	0.000E+000	0.00	679.700	0	1398.30	2.02	1399.87	3.86
225	1047.40	0.000E+000	0.00	681.800	0	1305.40	2.11	1314.80	4.37
226	1050.60	0.000E+000	0.00	673.300	0	1234.83	2.00	1232.33	3.08
227	1053.80	0.000E+000	0.00	679.600	0	1147.83	2.52	1141.93	3.75
228	1057.00	0.000E+000	0.00	679.000	0	1075.43	2.02	1068.13	3.61
229	1060.20	0.000E+000	0.00	672.500	0	1008.63	2.36	1000.13	3.05
230	1063.40	0.000E+000	0.00	682.100	0	938.67	1.88	944.53	3.86
231	1066.59	0.000E+000	0.00	684.600	0	882.97	1.99	884.20	3.79
232	1069.79	0.000E+000	0.00	683.000	0	839.90	1.63	842.40	4.21
233	1072.98	0.000E+000	0.00	684.500	0	791.07	1.98	793.27	2.96
234	1076.17	0.000E+000	0.00	681.200	0	752.03	2.26	748.60	3.16
235	1079.35	0.000E+000	0.00	675.300	0	715.80	2.18	719.33	3.96
236	1082.54	0.000E+000	0.00	679.400	0	675.30	1.78	673.33	4.62
237	1085.72	0.000E+000	0.00	675.600	0	642.07	2.00	640.93	3.28
238	1088.90	0.000E+000	0.00	673.700	0	605.73	2.11	612.53	4.81
239	1092.08	0.000E+000	0.00	674.200	0	579.77	2.61	590.27	3.87
240	1095.26	0.000E+000	0.00	675.800	0	550.07	1.86	551.40	3.03
241	1098.44	0.000E+000	0.00	675.100	0	528.17	2.81	533.13	2.91
242	1101.61	0.000E+000	0.00	678.200	0	507.93	2.21	522.33	3.23
243	1104.78	0.000E+000	0.00	674.500	0	507.50	2.11	519.80	4.25
244	1107.95	0.000E+000	0.00	680.400	0	523.33	1.45	526.07	5.15
245	1111.12	0.000E+000	0.00	675.600	0	565.13	1.65	562.33	5.04
246	1114.28	0.000E+000	0.00	680.300	0	635.23	2.34	639.13	4.74
247	1117.45	0.000E+000	0.00	679.400	0	741.67	2.08	745.07	3.85
248	1120.61	0.000E+000	0.00	679.900	0	858.87	1.88	853.20	4.81
249	1123.77	0.000E+000	0.00	676.900	0	952.50	2.18	949.07	4.57
250	1126.93	0.000E+000	0.00	675.800	0	994.80	2.35	991.07	5.64
251	1130.08	0.000E+000	0.00	672.300	0	1002.43	1.87	999.87	4.27
252	1133.24	0.000E+000	0.00	675.700	0	982.50	1.74	976.00	4.42
253	1136.39	0.000E+000	0.00	677.300	0	966.50	1.85	964.27	5.43
254	1139.54	0.000E+000	0.00	679.200	0	966.03	2.32	964.73	4.47
255	1142.69	0.000E+000	0.00	690.600	0	980.90	2.09	986.67	5.59
[END_OF_CALDATA]
